trial,side,volume,scheduled_timestamp_utc,response_timestamp_utc,RT_seconds,resp_status,response_ts_sec,resp_phase,resp_phase_label,participant_id
1,right,0.15,2025-11-30 11:41:05.011329,2025-11-30 11:41:05.630868,0.61954,hit,1764502865.630868,-1.0,exhalation,P001
2,right,0.05,2025-11-30 11:41:09.011329,2025-11-30 11:41:09.505422,0.494093,hit,1764502869.505422,-1.0,exhalation,P001
3,left,0.1,2025-11-30 11:41:13.011329,2025-11-30 11:41:13.521630,0.510301,hit,1764502873.52163,-1.0,exhalation,P001
4,right,0.15,2025-11-30 11:41:15.011329,2025-11-30 11:41:15.514774,0.503445,hit,1764502875.514774,1.0,inhalation,P001
5,right,0.05,2025-11-30 11:41:22.011329,2025-11-30 11:41:22.477177,0.465848,hit,1764502882.4771771,-1.0,exhalation,P001
6,right,0.1,2025-11-30 11:41:27.011329,2025-11-30 11:41:27.528742,0.517413,hit,1764502887.5287418,-1.0,exhalation,P001
7,left,0.15,2025-11-30 11:41:31.011329,2025-11-30 11:41:31.436437,0.425108,hit,1764502891.436437,-1.0,exhalation,P001
8,right,0.05,2025-11-30 11:41:38.011329,2025-11-30 11:41:38.627026,0.615697,hit,1764502898.6270258,1.0,inhalation,P001
9,right,0.1,2025-11-30 11:41:45.011329,2025-11-30 11:41:45.550086,0.538758,hit,1764502905.5500858,-1.0,exhalation,P001
10,left,0.1,2025-11-30 11:41:50.011329,2025-11-30 11:41:50.451969,0.44064,hit,1764502910.451969,1.0,inhalation,P001
11,left,0.1,2025-11-30 11:41:54.011329,2025-11-30 11:41:54.491889,0.480561,hit,1764502914.491889,1.0,inhalation,P001
12,left,0.15,2025-11-30 11:41:58.011329,2025-11-30 11:41:58.433470,0.422142,hit,1764502918.43347,1.0,inhalation,P001
13,left,0.15,2025-11-30 11:42:05.011329,2025-11-30 11:42:05.506657,0.495328,hit,1764502925.5066571,-1.0,exhalation,P001
14,right,0.15,2025-11-30 11:42:10.011329,2025-11-30 11:42:10.561870,0.550541,hit,1764502930.56187,-1.0,exhalation,P001
15,left,0.1,2025-11-30 11:42:17.011329,2025-11-30 11:42:17.433449,0.42212,hit,1764502937.433449,-1.0,exhalation,P001
16,left,0.05,2025-11-30 11:42:22.011329,2025-11-30 11:42:22.438696,0.427367,hit,1764502942.438696,1.0,inhalation,P001
17,left,0.1,2025-11-30 11:42:24.011329,2025-11-30 11:42:24.564115,0.552786,hit,1764502944.564115,-1.0,exhalation,P001
18,right,0.15,2025-11-30 11:42:29.011329,2025-11-30 11:42:29.556986,0.545657,hit,1764502949.556986,1.0,inhalation,P001
19,left,0.1,2025-11-30 11:42:33.011329,2025-11-30 11:42:33.509493,0.498164,hit,1764502953.5094929,-1.0,exhalation,P001
20,right,0.1,2025-11-30 11:42:38.011329,2025-11-30 11:42:38.463262,0.451934,hit,1764502958.4632618,-1.0,exhalation,P001
21,right,0.1,2025-11-30 11:42:40.011329,2025-11-30 11:42:40.441934,0.430605,hit,1764502960.441934,1.0,inhalation,P001
22,right,0.15,2025-11-30 11:42:42.011329,2025-11-30 11:42:42.413430,0.402101,hit,1764502962.41343,-1.0,exhalation,P001
23,left,0.15,2025-11-30 11:42:44.011329,2025-11-30 11:42:44.626452,0.615124,hit,1764502964.626452,1.0,inhalation,P001
24,right,0.05,2025-11-30 11:42:51.011329,2025-11-30 11:42:51.434902,0.423574,hit,1764502971.434902,-1.0,exhalation,P001
25,left,0.15,2025-11-30 11:42:56.011329,2025-11-30 11:42:56.589827,0.578498,hit,1764502976.589827,1.0,inhalation,P001
26,left,0.1,2025-11-30 11:43:00.011329,2025-11-30 11:43:00.459786,0.448457,hit,1764502980.459786,1.0,inhalation,P001
27,right,0.15,2025-11-30 11:43:02.011329,2025-11-30 11:43:02.528395,0.517066,hit,1764502982.528395,1.0,inhalation,P001
28,right,0.15,2025-11-30 11:43:04.011329,2025-11-30 11:43:04.467628,0.456299,hit,1764502984.467628,1.0,inhalation,P001
29,left,0.05,2025-11-30 11:43:08.011329,2025-11-30 11:43:08.518165,0.506836,hit,1764502988.5181649,1.0,inhalation,P001
30,right,0.05,2025-11-30 11:43:15.011329,2025-11-30 11:43:15.519354,0.508025,hit,1764502995.519354,1.0,inhalation,P001
31,left,0.05,2025-11-30 11:43:22.011329,2025-11-30 11:43:22.454716,0.443387,hit,1764503002.454716,-1.0,exhalation,P001
32,right,0.05,2025-11-30 11:43:29.011329,2025-11-30 11:43:29.460341,0.449012,hit,1764503009.460341,1.0,inhalation,P001
33,right,0.05,2025-11-30 11:43:31.011329,2025-11-30 11:43:31.643474,0.632145,hit,1764503011.643474,-1.0,exhalation,P001
34,right,0.15,2025-11-30 11:43:36.011329,2025-11-30 11:43:36.561552,0.550223,hit,1764503016.5615518,-1.0,exhalation,P001
35,right,0.05,2025-11-30 11:43:38.011329,2025-11-30 11:43:38.546963,0.535634,hit,1764503018.546963,-1.0,exhalation,P001
36,right,0.15,2025-11-30 11:43:42.011329,2025-11-30 11:43:42.499907,0.488578,hit,1764503022.499907,1.0,inhalation,P001
37,left,0.1,2025-11-30 11:43:47.011329,2025-11-30 11:43:47.470496,0.459168,hit,1764503027.470496,-1.0,exhalation,P001
38,left,0.1,2025-11-30 11:43:51.011329,2025-11-30 11:43:51.522294,0.510965,hit,1764503031.522294,-1.0,exhalation,P001
39,right,0.15,2025-11-30 11:43:58.011329,2025-11-30 11:43:58.594103,0.582774,hit,1764503038.594103,-1.0,exhalation,P001
40,right,0.05,2025-11-30 11:44:05.011329,2025-11-30 11:44:05.738065,0.726737,hit,1764503045.738065,1.0,inhalation,P001
41,left,0.15,2025-11-30 11:44:09.011329,2025-11-30 11:44:09.765944,0.754615,hit,1764503049.765944,1.0,inhalation,P001
42,left,0.05,2025-11-30 11:44:14.011329,2025-11-30 11:44:14.654079,0.64275,hit,1764503054.654079,-1.0,exhalation,P001
43,left,0.1,2025-11-30 11:44:19.011329,2025-11-30 11:44:19.580725,0.569397,hit,1764503059.580725,-1.0,exhalation,P001
44,left,0.15,2025-11-30 11:44:26.011329,2025-11-30 11:44:26.575305,0.563977,hit,1764503066.575305,-1.0,exhalation,P001
45,left,0.1,2025-11-30 11:44:28.011329,2025-11-30 11:44:28.675146,0.663818,hit,1764503068.675146,1.0,inhalation,P001
46,right,0.1,2025-11-30 11:44:33.011329,2025-11-30 11:44:33.643529,0.632201,hit,1764503073.643529,-1.0,exhalation,P001
47,left,0.1,2025-11-30 11:44:35.011329,2025-11-30 11:44:35.689501,0.678172,hit,1764503075.689501,-1.0,exhalation,P001
48,left,0.05,2025-11-30 11:44:40.011329,2025-11-30 11:44:40.562959,0.55163,hit,1764503080.5629592,1.0,inhalation,P001
49,right,0.1,2025-11-30 11:44:42.011329,2025-11-30 11:44:42.577032,0.565703,hit,1764503082.577032,-1.0,exhalation,P001
50,right,0.1,2025-11-30 11:44:49.011329,2025-11-30 11:44:49.612709,0.60138,hit,1764503089.612709,1.0,inhalation,P001
51,right,0.05,2025-11-30 11:44:56.011329,2025-11-30 11:44:56.638655,0.627326,hit,1764503096.638655,1.0,inhalation,P001
52,right,0.05,2025-11-30 11:45:00.011329,2025-11-30 11:45:00.614948,0.603619,hit,1764503100.614948,-1.0,exhalation,P001
53,left,0.15,2025-11-30 11:45:04.011329,2025-11-30 11:45:04.563581,0.552252,hit,1764503104.563581,1.0,inhalation,P001
54,left,0.05,2025-11-30 11:45:09.011329,2025-11-30 11:45:09.689994,0.678665,hit,1764503109.689994,-1.0,exhalation,P001
55,right,0.05,2025-11-30 11:45:11.011329,2025-11-30 11:45:11.689679,0.67835,hit,1764503111.6896791,1.0,inhalation,P001
56,right,0.15,2025-11-30 11:45:16.011329,2025-11-30 11:45:16.915458,0.904129,hit,1764503116.915458,-1.0,exhalation,P001
57,right,0.1,2025-11-30 11:45:18.011329,2025-11-30 11:45:18.856806,0.845477,hit,1764503118.8568058,1.0,inhalation,P001
58,right,0.05,2025-11-30 11:45:23.011329,2025-11-30 11:45:23.702594,0.691266,hit,1764503123.702594,1.0,inhalation,P001
59,right,0.05,2025-11-30 11:45:27.011329,2025-11-30 11:45:27.523567,0.512239,hit,1764503127.5235672,1.0,inhalation,P001
60,right,0.05,2025-11-30 11:45:32.011329,2025-11-30 11:45:32.565587,0.554258,hit,1764503132.565587,1.0,inhalation,P001
61,right,0.1,2025-11-30 11:45:34.011329,2025-11-30 11:45:34.620915,0.609586,hit,1764503134.620915,-1.0,exhalation,P001
62,left,0.15,2025-11-30 11:45:39.011329,2025-11-30 11:45:39.589884,0.578556,hit,1764503139.5898838,1.0,inhalation,P001
63,left,0.1,2025-11-30 11:45:41.011329,2025-11-30 11:45:41.593970,0.582641,hit,1764503141.5939698,-1.0,exhalation,P001
64,right,0.1,2025-11-30 11:45:46.011329,2025-11-30 11:45:46.577610,0.566281,hit,1764503146.57761,-1.0,exhalation,P001
65,left,0.15,2025-11-30 11:45:51.011329,2025-11-30 11:45:51.666488,0.65516,hit,1764503151.6664882,-1.0,exhalation,P001
66,left,0.15,2025-11-30 11:45:58.011329,2025-11-30 11:45:58.668674,0.657345,hit,1764503158.668674,-1.0,exhalation,P001
67,right,0.05,2025-11-30 11:46:03.011329,2025-11-30 11:46:03.600425,0.589096,hit,1764503163.600425,-1.0,exhalation,P001
68,right,0.1,2025-11-30 11:46:05.011329,2025-11-30 11:46:05.598006,0.586677,hit,1764503165.598006,1.0,inhalation,P001
69,right,0.1,2025-11-30 11:46:12.011329,2025-11-30 11:46:12.539858,0.52853,hit,1764503172.539858,1.0,inhalation,P001
70,left,0.1,2025-11-30 11:46:14.011329,2025-11-30 11:46:14.627558,0.616229,hit,1764503174.627558,-1.0,exhalation,P001
71,left,0.15,2025-11-30 11:46:16.011329,2025-11-30 11:46:16.674555,0.663226,hit,1764503176.6745548,-1.0,exhalation,P001
72,right,0.15,2025-11-30 11:46:21.011329,2025-11-30 11:46:21.557759,0.54643,hit,1764503181.557759,1.0,inhalation,P001
73,left,0.15,2025-11-30 11:46:28.011329,2025-11-30 11:46:28.602685,0.591356,hit,1764503188.602685,-1.0,exhalation,P001
74,right,0.15,2025-11-30 11:46:30.011329,2025-11-30 11:46:30.638156,0.626828,hit,1764503190.638156,-1.0,exhalation,P001
75,left,0.15,2025-11-30 11:46:32.011329,2025-11-30 11:46:32.603222,0.591893,hit,1764503192.603222,1.0,inhalation,P001
76,left,0.05,2025-11-30 11:46:34.011329,2025-11-30 11:46:34.582799,0.57147,hit,1764503194.5827992,-1.0,exhalation,P001
77,left,0.15,2025-11-30 11:46:41.011329,2025-11-30 11:46:41.667017,0.655689,hit,1764503201.667017,-1.0,exhalation,P001
78,right,0.15,2025-11-30 11:46:48.011329,2025-11-30 11:46:48.661121,0.649793,hit,1764503208.6611211,1.0,inhalation,P001
79,right,0.15,2025-11-30 11:46:53.011329,2025-11-30 11:46:53.736362,0.725034,hit,1764503213.736362,-1.0,exhalation,P001
80,left,0.05,2025-11-30 11:46:57.011329,2025-11-30 11:46:57.593387,0.582058,hit,1764503217.5933871,-1.0,exhalation,P001
81,left,0.15,2025-11-30 11:47:04.011329,2025-11-30 11:47:04.676935,0.665606,hit,1764503224.676935,-1.0,exhalation,P001
82,left,0.05,2025-11-30 11:47:08.011329,2025-11-30 11:47:08.580951,0.569623,hit,1764503228.580951,1.0,inhalation,P001
83,right,0.1,2025-11-30 11:47:15.011329,2025-11-30 11:47:15.596619,0.585291,hit,1764503235.596619,-1.0,exhalation,P001
84,left,0.1,2025-11-30 11:47:20.011329,2025-11-30 11:47:20.647478,0.63615,hit,1764503240.647478,1.0,inhalation,P001
85,right,0.15,2025-11-30 11:47:24.011329,2025-11-30 11:47:24.584165,0.572837,hit,1764503244.584165,1.0,inhalation,P001
86,left,0.05,2025-11-30 11:47:31.011329,2025-11-30 11:47:31.600861,0.589533,hit,1764503251.6008608,-1.0,exhalation,P001
87,left,0.05,2025-11-30 11:47:36.011329,2025-11-30 11:47:36.696767,0.685438,hit,1764503256.696767,1.0,inhalation,P001
88,right,0.1,2025-11-30 11:47:38.011329,2025-11-30 11:47:38.835441,0.824112,hit,1764503258.8354409,-1.0,exhalation,P001
89,right,0.15,2025-11-30 11:47:45.011329,2025-11-30 11:47:45.674364,0.663035,hit,1764503265.674364,1.0,inhalation,P001
90,right,0.1,2025-11-30 11:47:47.011329,2025-11-30 11:47:47.659646,0.648317,hit,1764503267.659646,1.0,inhalation,P001
91,left,0.05,2025-11-30 11:47:49.011329,2025-11-30 11:47:49.635367,0.624038,hit,1764503269.635367,1.0,inhalation,P001
92,right,0.15,2025-11-30 11:47:54.011329,2025-11-30 11:47:54.557214,0.545886,hit,1764503274.557214,1.0,inhalation,P001
93,left,0.05,2025-11-30 11:48:01.011329,2025-11-30 11:48:01.614760,0.603431,hit,1764503281.61476,-1.0,exhalation,P001
94,right,0.05,2025-11-30 11:48:05.011329,2025-11-30 11:48:05.617230,0.605901,hit,1764503285.6172302,1.0,inhalation,P001
95,right,0.15,2025-11-30 11:48:07.011329,2025-11-30 11:48:07.597975,0.586646,hit,1764503287.597975,-1.0,exhalation,P001
96,right,0.15,2025-11-30 11:48:09.011329,2025-11-30 11:48:09.501258,0.489929,hit,1764503289.501258,1.0,inhalation,P001
97,left,0.05,2025-11-30 11:48:14.011329,2025-11-30 11:48:14.604419,0.59309,hit,1764503294.604419,1.0,inhalation,P001
98,left,0.15,2025-11-30 11:48:18.011329,2025-11-30 11:48:18.531907,0.520579,hit,1764503298.531907,1.0,inhalation,P001
99,left,0.1,2025-11-30 11:48:20.011329,2025-11-30 11:48:20.528665,0.517336,hit,1764503300.528665,1.0,inhalation,P001
100,left,0.05,2025-11-30 11:48:25.011329,2025-11-30 11:48:25.624352,0.613023,hit,1764503305.624352,-1.0,exhalation,P001
101,left,0.1,2025-11-30 11:48:32.011329,2025-11-30 11:48:32.600928,0.589599,hit,1764503312.600928,1.0,inhalation,P001
102,left,0.1,2025-11-30 11:48:34.011329,2025-11-30 11:48:34.622006,0.610678,hit,1764503314.622006,1.0,inhalation,P001
103,right,0.15,2025-11-30 11:48:41.011329,2025-11-30 11:48:41.649141,0.637812,hit,1764503321.649141,-1.0,exhalation,P001
104,right,0.1,2025-11-30 11:48:48.011329,2025-11-30 11:48:48.610454,0.599125,hit,1764503328.610454,-1.0,exhalation,P001
105,right,0.1,2025-11-30 11:48:55.011329,2025-11-30 11:48:55.753413,0.742084,hit,1764503335.7534132,-1.0,exhalation,P001
106,right,0.1,2025-11-30 11:49:02.011329,2025-11-30 11:49:02.542088,0.530759,hit,1764503342.542088,1.0,inhalation,P001
107,right,0.05,2025-11-30 11:49:04.011329,2025-11-30 11:49:04.595570,0.584241,hit,1764503344.5955698,-1.0,exhalation,P001
108,left,0.05,2025-11-30 11:49:11.011329,2025-11-30 11:49:11.530335,0.519006,hit,1764503351.530335,-1.0,exhalation,P001
109,left,0.15,2025-11-30 11:49:15.011329,2025-11-30 11:49:15.541369,0.530041,hit,1764503355.5413692,-1.0,exhalation,P001
110,left,0.15,2025-11-30 11:49:17.011329,2025-11-30 11:49:17.575258,0.56393,hit,1764503357.575258,-1.0,exhalation,P001
111,left,0.15,2025-11-30 11:49:22.011329,2025-11-30 11:49:22.556540,0.545211,hit,1764503362.55654,1.0,inhalation,P001
112,left,0.05,2025-11-30 11:49:26.011329,2025-11-30 11:49:26.566610,0.555281,hit,1764503366.56661,-1.0,exhalation,P001
113,left,0.05,2025-11-30 11:49:28.011329,2025-11-30 11:49:28.569714,0.558386,hit,1764503368.5697138,-1.0,exhalation,P001
114,left,0.15,2025-11-30 11:49:32.011329,2025-11-30 11:49:32.552420,0.541091,hit,1764503372.55242,1.0,inhalation,P001
115,left,0.05,2025-11-30 11:49:37.011329,2025-11-30 11:49:37.629262,0.617934,hit,1764503377.629262,-1.0,exhalation,P001
116,right,0.05,2025-11-30 11:49:44.011329,2025-11-30 11:49:44.686018,0.674689,hit,1764503384.686018,-1.0,exhalation,P001
117,right,0.05,2025-11-30 11:49:51.011329,2025-11-30 11:49:51.573719,0.56239,hit,1764503391.573719,1.0,inhalation,P001
118,right,0.05,2025-11-30 11:49:53.011329,2025-11-30 11:49:53.602973,0.591644,hit,1764503393.602973,-1.0,exhalation,P001
119,left,0.05,2025-11-30 11:50:00.011329,2025-11-30 11:50:00.611138,0.599809,hit,1764503400.611138,-1.0,exhalation,P001
120,left,0.1,2025-11-30 11:50:07.011329,2025-11-30 11:50:07.730297,0.718968,hit,1764503407.730297,1.0,inhalation,P001
121,right,0.1,2025-11-30 11:50:09.011329,2025-11-30 11:50:09.587238,0.575909,hit,1764503409.5872378,-1.0,exhalation,P001
122,left,0.05,2025-11-30 11:50:16.011329,2025-11-30 11:50:16.584495,0.573166,hit,1764503416.584495,-1.0,exhalation,P001
123,left,0.1,2025-11-30 11:50:18.011329,2025-11-30 11:50:18.670024,0.658695,hit,1764503418.670024,-1.0,exhalation,P001
124,right,0.1,2025-11-30 11:50:25.011329,2025-11-30 11:50:25.619108,0.607779,hit,1764503425.6191082,1.0,inhalation,P001
125,left,0.1,2025-11-30 11:50:29.011329,2025-11-30 11:50:29.597209,0.58588,hit,1764503429.597209,1.0,inhalation,P001
126,right,0.1,2025-11-30 11:50:31.011329,2025-11-30 11:50:31.819333,0.808004,hit,1764503431.819333,-1.0,exhalation,P001
1,right,0.15,2025-11-30 11:58:59.676121,2025-11-30 11:59:00.271226,0.595105,hit,1764503940.2712262,-1.0,exhalation,P002
2,right,0.05,2025-11-30 11:59:03.676121,2025-11-30 11:59:04.190090,0.513968,hit,1764503944.19009,1.0,inhalation,P002
3,left,0.1,2025-11-30 11:59:07.676121,2025-11-30 11:59:08.453166,0.777044,hit,1764503948.453166,1.0,inhalation,P002
4,right,0.15,2025-11-30 11:59:09.676121,2025-11-30 11:59:10.288466,0.612345,hit,1764503950.288466,-1.0,exhalation,P002
5,right,0.05,2025-11-30 11:59:16.676121,2025-11-30 11:59:17.256784,0.580662,hit,1764503957.256784,-1.0,exhalation,P002
6,right,0.1,2025-11-30 11:59:21.676121,2025-11-30 11:59:22.365959,0.689838,hit,1764503962.365959,-1.0,exhalation,P002
7,left,0.15,2025-11-30 11:59:25.676121,2025-11-30 11:59:26.136592,0.460471,hit,1764503966.136592,-1.0,exhalation,P002
8,right,0.05,2025-11-30 11:59:32.676121,2025-11-30 11:59:33.128891,0.45277,hit,1764503973.128891,-1.0,exhalation,P002
9,right,0.1,2025-11-30 11:59:39.676121,2025-11-30 11:59:40.175728,0.499607,hit,1764503980.175728,1.0,inhalation,P002
10,left,0.1,2025-11-30 11:59:44.676121,2025-11-30 11:59:45.140162,0.46404,hit,1764503985.140162,-1.0,exhalation,P002
11,left,0.1,2025-11-30 11:59:48.676121,2025-11-30 11:59:49.086743,0.410621,hit,1764503989.086743,1.0,inhalation,P002
12,left,0.15,2025-11-30 11:59:52.676121,2025-11-30 11:59:53.088592,0.41247,hit,1764503993.0885918,1.0,inhalation,P002
13,left,0.15,2025-11-30 11:59:59.676121,2025-11-30 12:00:00.181940,0.505819,hit,1764504000.18194,-1.0,exhalation,P002
14,right,0.15,2025-11-30 12:00:04.676121,2025-11-30 12:00:05.141206,0.465085,hit,1764504005.141206,-1.0,exhalation,P002
15,left,0.1,2025-11-30 12:00:11.676121,2025-11-30 12:00:12.153673,0.477551,hit,1764504012.153673,1.0,inhalation,P002
16,left,0.05,2025-11-30 12:00:16.676121,2025-11-30 12:00:17.188755,0.512633,hit,1764504017.188755,-1.0,exhalation,P002
17,left,0.1,2025-11-30 12:00:18.676121,2025-11-30 12:00:19.167886,0.491764,hit,1764504019.167886,1.0,inhalation,P002
18,right,0.15,2025-11-30 12:00:23.676121,2025-11-30 12:00:24.172826,0.496704,hit,1764504024.172826,1.0,inhalation,P002
19,left,0.1,2025-11-30 12:00:27.676121,2025-11-30 12:00:28.046402,0.370281,hit,1764504028.046402,-1.0,exhalation,P002
20,right,0.1,2025-11-30 12:00:32.676121,2025-11-30 12:00:33.082745,0.406623,hit,1764504033.082745,-1.0,exhalation,P002
21,right,0.1,2025-11-30 12:00:34.676121,2025-11-30 12:00:35.132186,0.456065,hit,1764504035.1321862,1.0,inhalation,P002
22,right,0.15,2025-11-30 12:00:36.676121,2025-11-30 12:00:37.058637,0.382516,hit,1764504037.0586371,1.0,inhalation,P002
23,left,0.15,2025-11-30 12:00:38.676121,2025-11-30 12:00:39.080846,0.404725,hit,1764504039.080846,-1.0,exhalation,P002
24,right,0.05,2025-11-30 12:00:45.676121,2025-11-30 12:00:46.268926,0.592805,hit,1764504046.268926,-1.0,exhalation,P002
25,left,0.15,2025-11-30 12:00:50.676121,2025-11-30 12:00:51.151711,0.47559,hit,1764504051.151711,-1.0,exhalation,P002
26,left,0.1,2025-11-30 12:00:54.676121,2025-11-30 12:00:55.131854,0.455732,hit,1764504055.131854,-1.0,exhalation,P002
27,right,0.15,2025-11-30 12:00:56.676121,2025-11-30 12:00:57.162061,0.48594,hit,1764504057.162061,1.0,inhalation,P002
28,right,0.15,2025-11-30 12:00:58.676121,2025-11-30 12:00:59.098991,0.42287,hit,1764504059.0989912,-1.0,exhalation,P002
29,left,0.05,2025-11-30 12:01:02.676121,2025-11-30 12:01:03.128125,0.452003,hit,1764504063.128125,-1.0,exhalation,P002
30,right,0.05,2025-11-30 12:01:09.676121,2025-11-30 12:01:10.124022,0.447901,hit,1764504070.124022,1.0,inhalation,P002
31,left,0.05,2025-11-30 12:01:16.676121,2025-11-30 12:01:17.256631,0.580509,hit,1764504077.2566311,1.0,inhalation,P002
32,right,0.05,2025-11-30 12:01:23.676121,2025-11-30 12:01:24.203043,0.526922,hit,1764504084.203043,-1.0,exhalation,P002
33,right,0.05,2025-11-30 12:01:25.676121,2025-11-30 12:01:26.163703,0.487582,hit,1764504086.163703,1.0,inhalation,P002
34,right,0.15,2025-11-30 12:01:30.676121,2025-11-30 12:01:31.095321,0.419199,hit,1764504091.0953212,1.0,inhalation,P002
35,right,0.05,2025-11-30 12:01:32.676121,2025-11-30 12:01:33.101780,0.425659,hit,1764504093.10178,-1.0,exhalation,P002
36,right,0.15,2025-11-30 12:01:36.676121,2025-11-30 12:01:37.086775,0.410653,hit,1764504097.086775,-1.0,exhalation,P002
37,left,0.1,2025-11-30 12:01:41.676121,2025-11-30 12:01:42.112059,0.435938,hit,1764504102.1120589,-1.0,exhalation,P002
38,left,0.1,2025-11-30 12:01:45.676121,2025-11-30 12:01:46.122788,0.446666,hit,1764504106.1227882,-1.0,exhalation,P002
39,right,0.15,2025-11-30 12:01:52.676121,2025-11-30 12:01:53.307678,0.631557,hit,1764504113.307678,1.0,inhalation,P002
40,right,0.05,2025-11-30 12:01:59.676121,2025-11-30 12:02:00.215481,0.53936,hit,1764504120.215481,-1.0,exhalation,P002
41,left,0.15,2025-11-30 12:02:03.676121,2025-11-30 12:02:04.290367,0.614246,hit,1764504124.290367,-1.0,exhalation,P002
42,left,0.05,2025-11-30 12:02:08.676121,2025-11-30 12:02:09.240399,0.564278,hit,1764504129.2403991,-1.0,exhalation,P002
43,left,0.1,2025-11-30 12:02:13.676121,2025-11-30 12:02:14.222984,0.546862,hit,1764504134.2229838,-1.0,exhalation,P002
44,left,0.15,2025-11-30 12:02:20.676121,2025-11-30 12:02:21.278432,0.602311,hit,1764504141.278432,-1.0,exhalation,P002
45,left,0.1,2025-11-30 12:02:22.676121,2025-11-30 12:02:23.209700,0.533578,hit,1764504143.2097,1.0,inhalation,P002
46,right,0.1,2025-11-30 12:02:27.676121,2025-11-30 12:02:28.275378,0.599256,hit,1764504148.275378,-1.0,exhalation,P002
47,left,0.1,2025-11-30 12:02:29.676121,2025-11-30 12:02:30.172009,0.495888,hit,1764504150.172009,1.0,inhalation,P002
48,left,0.05,2025-11-30 12:02:34.676121,2025-11-30 12:02:35.219455,0.543333,hit,1764504155.219455,-1.0,exhalation,P002
49,right,0.1,2025-11-30 12:02:36.676121,2025-11-30 12:02:37.216910,0.540788,hit,1764504157.21691,1.0,inhalation,P002
50,right,0.1,2025-11-30 12:02:43.676121,2025-11-30 12:02:44.245394,0.569272,hit,1764504164.245394,-1.0,exhalation,P002
51,right,0.05,2025-11-30 12:02:50.676121,2025-11-30 12:02:51.152583,0.476461,hit,1764504171.152583,-1.0,exhalation,P002
52,right,0.05,2025-11-30 12:02:54.676121,2025-11-30 12:02:55.193283,0.517162,hit,1764504175.193283,1.0,inhalation,P002
53,left,0.15,2025-11-30 12:02:58.676121,2025-11-30 12:02:59.173556,0.497434,hit,1764504179.173556,-1.0,exhalation,P002
54,left,0.05,2025-11-30 12:03:03.676121,2025-11-30 12:03:04.203293,0.527172,hit,1764504184.2032928,-1.0,exhalation,P002
55,right,0.05,2025-11-30 12:03:05.676121,2025-11-30 12:03:06.185499,0.509378,hit,1764504186.185499,1.0,inhalation,P002
56,right,0.15,2025-11-30 12:03:10.676121,2025-11-30 12:03:11.152119,0.475998,hit,1764504191.152119,1.0,inhalation,P002
57,right,0.1,2025-11-30 12:03:12.676121,2025-11-30 12:03:13.207958,0.531836,hit,1764504193.207958,1.0,inhalation,P002
58,right,0.05,2025-11-30 12:03:17.676121,2025-11-30 12:03:18.191144,0.515022,hit,1764504198.191144,1.0,inhalation,P002
59,right,0.05,2025-11-30 12:03:21.676121,2025-11-30 12:03:22.211191,0.535069,hit,1764504202.211191,1.0,inhalation,P002
60,right,0.05,2025-11-30 12:03:26.676121,2025-11-30 12:03:27.218755,0.542634,hit,1764504207.218755,1.0,inhalation,P002
61,right,0.1,2025-11-30 12:03:28.676121,2025-11-30 12:03:29.381257,0.705136,hit,1764504209.381257,-1.0,exhalation,P002
62,left,0.15,2025-11-30 12:03:33.676121,2025-11-30 12:03:34.269990,0.593869,hit,1764504214.26999,-1.0,exhalation,P002
63,left,0.1,2025-11-30 12:03:35.676121,2025-11-30 12:03:36.156337,0.480216,hit,1764504216.1563368,1.0,inhalation,P002
64,right,0.1,2025-11-30 12:03:40.676121,2025-11-30 12:03:41.266831,0.590709,hit,1764504221.2668312,1.0,inhalation,P002
65,left,0.15,2025-11-30 12:03:45.676121,2025-11-30 12:03:46.318513,0.642391,hit,1764504226.318513,-1.0,exhalation,P002
66,left,0.15,2025-11-30 12:03:52.676121,2025-11-30 12:03:53.255736,0.579614,hit,1764504233.255736,1.0,inhalation,P002
67,right,0.05,2025-11-30 12:03:57.676121,2025-11-30 12:03:58.212633,0.536512,hit,1764504238.2126331,1.0,inhalation,P002
68,right,0.1,2025-11-30 12:03:59.676121,2025-11-30 12:04:00.236466,0.560344,hit,1764504240.236466,-1.0,exhalation,P002
69,right,0.1,2025-11-30 12:04:06.676121,2025-11-30 12:04:07.286351,0.61023,hit,1764504247.2863512,1.0,inhalation,P002
70,left,0.1,2025-11-30 12:04:08.676121,2025-11-30 12:04:09.242759,0.566637,hit,1764504249.242759,-1.0,exhalation,P002
71,left,0.15,2025-11-30 12:04:10.676121,2025-11-30 12:04:11.198507,0.522386,hit,1764504251.198507,1.0,inhalation,P002
72,right,0.15,2025-11-30 12:04:15.676121,2025-11-30 12:04:16.220493,0.544371,hit,1764504256.220493,-1.0,exhalation,P002
73,left,0.15,2025-11-30 12:04:22.676121,2025-11-30 12:04:23.273612,0.597491,hit,1764504263.273612,1.0,inhalation,P002
74,right,0.15,2025-11-30 12:04:24.676121,2025-11-30 12:04:25.188951,0.512829,hit,1764504265.188951,-1.0,exhalation,P002
75,left,0.15,2025-11-30 12:04:26.676121,2025-11-30 12:04:27.161125,0.485004,hit,1764504267.1611252,1.0,inhalation,P002
76,left,0.05,2025-11-30 12:04:28.676121,2025-11-30 12:04:29.295189,0.619068,hit,1764504269.295189,-1.0,exhalation,P002
77,left,0.15,2025-11-30 12:04:35.676121,2025-11-30 12:04:36.197335,0.521214,hit,1764504276.197335,-1.0,exhalation,P002
78,right,0.15,2025-11-30 12:04:42.676121,2025-11-30 12:04:43.192698,0.516576,hit,1764504283.192698,-1.0,exhalation,P002
79,right,0.15,2025-11-30 12:04:47.676121,2025-11-30 12:04:48.348463,0.672341,hit,1764504288.348463,1.0,inhalation,P002
80,left,0.05,2025-11-30 12:04:51.676121,2025-11-30 12:04:52.165915,0.489794,hit,1764504292.1659148,1.0,inhalation,P002
81,left,0.15,2025-11-30 12:04:58.676121,2025-11-30 12:04:59.246793,0.570671,hit,1764504299.246793,-1.0,exhalation,P002
82,left,0.05,2025-11-30 12:05:02.676121,2025-11-30 12:05:03.246144,0.570023,hit,1764504303.246144,-1.0,exhalation,P002
83,right,0.1,2025-11-30 12:05:09.676121,2025-11-30 12:05:10.266000,0.589879,hit,1764504310.2659998,-1.0,exhalation,P002
84,left,0.1,2025-11-30 12:05:14.676121,2025-11-30 12:05:15.158867,0.482746,hit,1764504315.158867,1.0,inhalation,P002
85,right,0.15,2025-11-30 12:05:18.676121,2025-11-30 12:05:19.217212,0.54109,hit,1764504319.217212,1.0,inhalation,P002
86,left,0.05,2025-11-30 12:05:25.676121,2025-11-30 12:05:26.187809,0.511687,hit,1764504326.187809,1.0,inhalation,P002
87,left,0.05,2025-11-30 12:05:30.676121,2025-11-30 12:05:31.247056,0.570934,hit,1764504331.2470558,-1.0,exhalation,P002
88,right,0.1,2025-11-30 12:05:32.676121,2025-11-30 12:05:33.227832,0.551711,hit,1764504333.227832,1.0,inhalation,P002
89,right,0.15,2025-11-30 12:05:39.676121,2025-11-30 12:05:40.241143,0.565022,hit,1764504340.241143,1.0,inhalation,P002
90,right,0.1,2025-11-30 12:05:41.676121,2025-11-30 12:05:42.233431,0.55731,hit,1764504342.233431,-1.0,exhalation,P002
91,left,0.05,2025-11-30 12:05:43.676121,2025-11-30 12:05:44.216263,0.540142,hit,1764504344.2162628,1.0,inhalation,P002
92,right,0.15,2025-11-30 12:05:48.676121,2025-11-30 12:05:49.285465,0.609343,hit,1764504349.285465,1.0,inhalation,P002
93,left,0.05,2025-11-30 12:05:55.676121,2025-11-30 12:05:56.257770,0.581648,hit,1764504356.25777,1.0,inhalation,P002
94,right,0.05,2025-11-30 12:05:59.676121,2025-11-30 12:06:00.230408,0.554287,hit,1764504360.230408,-1.0,exhalation,P002
95,right,0.15,2025-11-30 12:06:01.676121,2025-11-30 12:06:02.292584,0.616463,hit,1764504362.292584,-1.0,exhalation,P002
96,right,0.15,2025-11-30 12:06:03.676121,2025-11-30 12:06:04.240584,0.564463,hit,1764504364.240584,1.0,inhalation,P002
97,left,0.05,2025-11-30 12:06:08.676121,2025-11-30 12:06:09.402986,0.726864,hit,1764504369.402986,-1.0,exhalation,P002
98,left,0.15,2025-11-30 12:06:12.676121,2025-11-30 12:06:13.195974,0.519852,hit,1764504373.195974,-1.0,exhalation,P002
99,left,0.1,2025-11-30 12:06:14.676121,2025-11-30 12:06:15.201691,0.525569,hit,1764504375.201691,1.0,inhalation,P002
100,left,0.05,2025-11-30 12:06:19.676121,2025-11-30 12:06:20.310349,0.634228,hit,1764504380.310349,-1.0,exhalation,P002
101,left,0.1,2025-11-30 12:06:26.676121,2025-11-30 12:06:27.311520,0.635398,hit,1764504387.31152,-1.0,exhalation,P002
102,left,0.1,2025-11-30 12:06:28.676121,2025-11-30 12:06:29.248939,0.572818,hit,1764504389.248939,1.0,inhalation,P002
103,right,0.15,2025-11-30 12:06:35.676121,2025-11-30 12:06:36.219544,0.543423,hit,1764504396.2195442,-1.0,exhalation,P002
104,right,0.1,2025-11-30 12:06:42.676121,2025-11-30 12:06:43.287242,0.61112,hit,1764504403.287242,-1.0,exhalation,P002
105,right,0.1,2025-11-30 12:06:49.676121,2025-11-30 12:06:50.220857,0.544736,hit,1764504410.2208571,-1.0,exhalation,P002
106,right,0.1,2025-11-30 12:06:56.676121,2025-11-30 12:06:57.273024,0.596903,hit,1764504417.273024,1.0,inhalation,P002
107,right,0.05,2025-11-30 12:06:58.676121,2025-11-30 12:06:59.357353,0.681231,hit,1764504419.357353,-1.0,exhalation,P002
108,left,0.05,2025-11-30 12:07:05.676121,2025-11-30 12:07:06.287979,0.611858,hit,1764504426.2879791,1.0,inhalation,P002
109,left,0.15,2025-11-30 12:07:09.676121,2025-11-30 12:07:10.300233,0.624112,hit,1764504430.300233,1.0,inhalation,P002
110,left,0.15,2025-11-30 12:07:11.676121,2025-11-30 12:07:12.270570,0.594449,hit,1764504432.27057,1.0,inhalation,P002
111,left,0.15,2025-11-30 12:07:16.676121,2025-11-30 12:07:17.285811,0.60969,hit,1764504437.285811,1.0,inhalation,P002
112,left,0.05,2025-11-30 12:07:20.676121,2025-11-30 12:07:21.205785,0.529664,hit,1764504441.205785,-1.0,exhalation,P002
113,left,0.05,2025-11-30 12:07:22.676121,2025-11-30 12:07:23.305527,0.629406,hit,1764504443.305527,1.0,inhalation,P002
114,left,0.15,2025-11-30 12:07:26.676121,2025-11-30 12:07:27.230681,0.554559,hit,1764504447.2306812,-1.0,exhalation,P002
115,left,0.05,2025-11-30 12:07:31.676121,2025-11-30 12:07:32.314680,0.638559,hit,1764504452.31468,1.0,inhalation,P002
116,right,0.05,2025-11-30 12:07:38.676121,2025-11-30 12:07:39.279787,0.603666,hit,1764504459.279787,1.0,inhalation,P002
117,right,0.05,2025-11-30 12:07:45.676121,2025-11-30 12:07:46.326217,0.650095,hit,1764504466.326217,-1.0,exhalation,P002
118,right,0.05,2025-11-30 12:07:47.676121,2025-11-30 12:07:48.276896,0.600775,hit,1764504468.276896,1.0,inhalation,P002
119,left,0.05,2025-11-30 12:07:54.676121,2025-11-30 12:07:55.254396,0.578275,hit,1764504475.254396,1.0,inhalation,P002
120,left,0.1,2025-11-30 12:08:01.676121,2025-11-30 12:08:02.229947,0.553826,hit,1764504482.2299469,-1.0,exhalation,P002
121,right,0.1,2025-11-30 12:08:03.676121,2025-11-30 12:08:04.238757,0.562635,hit,1764504484.2387571,1.0,inhalation,P002
122,left,0.05,2025-11-30 12:08:10.676121,2025-11-30 12:08:11.312337,0.636216,hit,1764504491.312337,1.0,inhalation,P002
123,left,0.1,2025-11-30 12:08:12.676121,2025-11-30 12:08:13.277774,0.601653,hit,1764504493.277774,-1.0,exhalation,P002
124,right,0.1,2025-11-30 12:08:19.676121,2025-11-30 12:08:20.222974,0.546853,hit,1764504500.222974,-1.0,exhalation,P002
125,left,0.1,2025-11-30 12:08:23.676121,2025-11-30 12:08:24.263294,0.587172,hit,1764504504.263294,-1.0,exhalation,P002
126,right,0.1,2025-11-30 12:08:25.676121,2025-11-30 12:08:26.270800,0.594678,hit,1764504506.2708,1.0,inhalation,P002
1,right,0.15,2025-11-30 17:45:27.129117,2025-11-30 17:45:27.734811,0.605693,hit,1764524727.7348108,-1.0,exhalation,P003
2,right,0.05,2025-11-30 17:45:31.129117,2025-11-30 17:45:31.671988,0.542871,hit,1764524731.671988,-1.0,exhalation,P003
3,left,0.1,2025-11-30 17:45:35.129117,2025-11-30 17:45:35.589734,0.460616,hit,1764524735.5897338,-1.0,exhalation,P003
4,right,0.15,2025-11-30 17:45:37.129117,2025-11-30 17:45:37.650135,0.521017,hit,1764524737.650135,1.0,inhalation,P003
5,right,0.05,2025-11-30 17:45:44.129117,2025-11-30 17:45:44.596864,0.467747,hit,1764524744.596864,1.0,inhalation,P003
6,right,0.1,2025-11-30 17:45:49.129117,2025-11-30 17:45:49.610091,0.480973,hit,1764524749.610091,1.0,inhalation,P003
7,left,0.15,2025-11-30 17:45:53.129117,2025-11-30 17:45:53.610501,0.481383,hit,1764524753.610501,1.0,inhalation,P003
8,right,0.05,2025-11-30 17:46:00.129117,2025-11-30 17:46:00.659558,0.530441,hit,1764524760.6595578,1.0,inhalation,P003
9,right,0.1,2025-11-30 17:46:07.129117,2025-11-30 17:46:07.758811,0.629694,hit,1764524767.758811,-1.0,exhalation,P003
10,left,0.1,2025-11-30 17:46:12.129117,2025-11-30 17:46:12.676353,0.547236,hit,1764524772.676353,1.0,inhalation,P003
11,left,0.1,2025-11-30 17:46:16.129117,2025-11-30 17:46:16.731857,0.602739,hit,1764524776.7318568,-1.0,exhalation,P003
12,left,0.15,2025-11-30 17:46:20.129117,2025-11-30 17:46:20.729793,0.600676,hit,1764524780.729793,1.0,inhalation,P003
13,left,0.15,2025-11-30 17:46:27.129117,2025-11-30 17:46:27.629761,0.500644,hit,1764524787.629761,1.0,inhalation,P003
14,right,0.15,2025-11-30 17:46:32.129117,2025-11-30 17:46:32.552263,0.423145,hit,1764524792.552263,1.0,inhalation,P003
15,left,0.1,2025-11-30 17:46:39.129117,2025-11-30 17:46:39.545370,0.416252,hit,1764524799.54537,1.0,inhalation,P003
16,left,0.05,2025-11-30 17:46:44.129117,2025-11-30 17:46:44.619786,0.490668,hit,1764524804.619786,1.0,inhalation,P003
17,left,0.1,2025-11-30 17:46:46.129117,2025-11-30 17:46:46.744641,0.615523,hit,1764524806.744641,-1.0,exhalation,P003
18,right,0.15,2025-11-30 17:46:51.129117,2025-11-30 17:46:51.608731,0.479613,hit,1764524811.6087308,1.0,inhalation,P003
19,left,0.1,2025-11-30 17:46:55.129117,2025-11-30 17:46:55.659631,0.530514,hit,1764524815.659631,1.0,inhalation,P003
20,right,0.1,2025-11-30 17:47:00.129117,2025-11-30 17:47:00.539221,0.410103,hit,1764524820.539221,1.0,inhalation,P003
21,right,0.1,2025-11-30 17:47:02.129117,2025-11-30 17:47:02.711490,0.582372,hit,1764524822.7114902,1.0,inhalation,P003
22,right,0.15,2025-11-30 17:47:04.129117,2025-11-30 17:47:04.574291,0.445173,hit,1764524824.574291,-1.0,exhalation,P003
23,left,0.15,2025-11-30 17:47:06.129117,2025-11-30 17:47:06.558117,0.429,hit,1764524826.5581172,-1.0,exhalation,P003
24,right,0.05,2025-11-30 17:47:13.129117,2025-11-30 17:47:13.595596,0.466479,hit,1764524833.595596,1.0,inhalation,P003
25,left,0.15,2025-11-30 17:47:18.129117,2025-11-30 17:47:18.613164,0.484047,hit,1764524838.613164,-1.0,exhalation,P003
26,left,0.1,2025-11-30 17:47:22.129117,2025-11-30 17:47:22.595133,0.466015,hit,1764524842.5951328,-1.0,exhalation,P003
27,right,0.15,2025-11-30 17:47:24.129117,2025-11-30 17:47:24.606432,0.477314,hit,1764524844.606432,1.0,inhalation,P003
28,right,0.15,2025-11-30 17:47:26.129117,2025-11-30 17:47:26.555245,0.426127,hit,1764524846.5552452,1.0,inhalation,P003
29,left,0.05,2025-11-30 17:47:30.129117,2025-11-30 17:47:30.561417,0.4323,hit,1764524850.5614169,-1.0,exhalation,P003
30,right,0.05,2025-11-30 17:47:37.129117,2025-11-30 17:47:37.665773,0.536655,hit,1764524857.6657732,1.0,inhalation,P003
31,left,0.05,2025-11-30 17:47:44.129117,2025-11-30 17:47:44.657938,0.528821,hit,1764524864.657938,1.0,inhalation,P003
32,right,0.05,2025-11-30 17:47:51.129117,2025-11-30 17:47:51.665802,0.536684,hit,1764524871.665802,1.0,inhalation,P003
33,right,0.05,2025-11-30 17:47:53.129117,2025-11-30 17:47:53.685358,0.55624,hit,1764524873.685358,-1.0,exhalation,P003
34,right,0.15,2025-11-30 17:47:58.129117,2025-11-30 17:47:58.609679,0.480561,hit,1764524878.6096792,-1.0,exhalation,P003
35,right,0.05,2025-11-30 17:48:00.129117,2025-11-30 17:48:00.626813,0.497695,hit,1764524880.626813,-1.0,exhalation,P003
36,right,0.15,2025-11-30 17:48:04.129117,2025-11-30 17:48:04.681715,0.552598,hit,1764524884.681715,1.0,inhalation,P003
37,left,0.1,2025-11-30 17:48:09.129117,2025-11-30 17:48:09.776452,0.647334,hit,1764524889.776452,1.0,inhalation,P003
38,left,0.1,2025-11-30 17:48:13.129117,2025-11-30 17:48:13.685045,0.555928,hit,1764524893.685045,-1.0,exhalation,P003
39,right,0.15,2025-11-30 17:48:20.129117,2025-11-30 17:48:20.857849,0.728731,hit,1764524900.8578491,-1.0,exhalation,P003
40,right,0.05,2025-11-30 17:48:27.129117,2025-11-30 17:48:27.761030,0.631912,hit,1764524907.76103,-1.0,exhalation,P003
41,left,0.15,2025-11-30 17:48:31.129117,2025-11-30 17:48:31.828264,0.699146,hit,1764524911.828264,1.0,inhalation,P003
42,left,0.05,2025-11-30 17:48:36.129117,2025-11-30 17:48:36.849601,0.720484,hit,1764524916.849601,-1.0,exhalation,P003
43,left,0.1,2025-11-30 17:48:41.129117,2025-11-30 17:48:41.798648,0.669531,hit,1764524921.798648,-1.0,exhalation,P003
44,left,0.15,2025-11-30 17:48:48.129117,2025-11-30 17:48:48.781747,0.65263,hit,1764524928.7817469,1.0,inhalation,P003
45,left,0.1,2025-11-30 17:48:50.129117,2025-11-30 17:48:50.770119,0.641002,hit,1764524930.770119,-1.0,exhalation,P003
46,right,0.1,2025-11-30 17:48:55.129117,2025-11-30 17:48:55.741884,0.612766,hit,1764524935.741884,1.0,inhalation,P003
47,left,0.1,2025-11-30 17:48:57.129117,2025-11-30 17:48:57.762693,0.633575,hit,1764524937.7626932,1.0,inhalation,P003
48,left,0.05,2025-11-30 17:49:02.129117,2025-11-30 17:49:02.752460,0.623342,hit,1764524942.75246,1.0,inhalation,P003
49,right,0.1,2025-11-30 17:49:04.129117,2025-11-30 17:49:04.722465,0.593347,hit,1764524944.722465,-1.0,exhalation,P003
50,right,0.1,2025-11-30 17:49:11.129117,2025-11-30 17:49:11.730186,0.601068,hit,1764524951.730186,1.0,inhalation,P003
51,right,0.05,2025-11-30 17:49:18.129117,2025-11-30 17:49:18.753793,0.624675,hit,1764524958.753793,1.0,inhalation,P003
52,right,0.05,2025-11-30 17:49:22.129117,2025-11-30 17:49:22.914183,0.785066,hit,1764524962.914183,-1.0,exhalation,P003
53,left,0.15,2025-11-30 17:49:26.129117,2025-11-30 17:49:26.926832,0.797714,hit,1764524966.9268322,-1.0,exhalation,P003
54,left,0.05,2025-11-30 17:49:31.129117,2025-11-30 17:49:31.832046,0.702928,hit,1764524971.832046,-1.0,exhalation,P003
55,right,0.05,2025-11-30 17:49:33.129117,2025-11-30 17:49:33.764565,0.635447,hit,1764524973.764565,-1.0,exhalation,P003
56,right,0.15,2025-11-30 17:49:38.129117,2025-11-30 17:49:38.767069,0.637952,hit,1764524978.7670689,1.0,inhalation,P003
57,right,0.1,2025-11-30 17:49:40.129117,2025-11-30 17:49:40.816646,0.687529,hit,1764524980.816646,1.0,inhalation,P003
58,right,0.05,2025-11-30 17:49:45.129117,2025-11-30 17:49:45.932010,0.802893,hit,1764524985.93201,1.0,inhalation,P003
59,right,0.05,2025-11-30 17:49:49.129117,2025-11-30 17:49:49.831308,0.702191,hit,1764524989.831308,-1.0,exhalation,P003
60,right,0.05,2025-11-30 17:49:54.129117,2025-11-30 17:49:54.787146,0.658028,hit,1764524994.787146,-1.0,exhalation,P003
61,right,0.1,2025-11-30 17:49:56.129117,2025-11-30 17:49:56.838764,0.709646,hit,1764524996.838764,-1.0,exhalation,P003
62,left,0.15,2025-11-30 17:50:01.129117,2025-11-30 17:50:01.809740,0.680622,hit,1764525001.80974,1.0,inhalation,P003
63,left,0.1,2025-11-30 17:50:03.129117,2025-11-30 17:50:03.900193,0.771076,hit,1764525003.900193,-1.0,exhalation,P003
64,right,0.1,2025-11-30 17:50:08.129117,2025-11-30 17:50:09.004215,0.875097,hit,1764525009.004215,-1.0,exhalation,P003
65,left,0.15,2025-11-30 17:50:13.129117,2025-11-30 17:50:14.055323,0.926205,hit,1764525014.055323,-1.0,exhalation,P003
66,left,0.15,2025-11-30 17:50:20.129117,2025-11-30 17:50:20.876108,0.74699,hit,1764525020.876108,-1.0,exhalation,P003
67,right,0.05,2025-11-30 17:50:25.129117,2025-11-30 17:50:25.938180,0.809062,hit,1764525025.9381802,-1.0,exhalation,P003
68,right,0.1,2025-11-30 17:50:27.129117,2025-11-30 17:50:27.927988,0.798871,hit,1764525027.927988,1.0,inhalation,P003
69,right,0.1,2025-11-30 17:50:34.129117,2025-11-30 17:50:34.886361,0.757244,hit,1764525034.8863611,1.0,inhalation,P003
70,left,0.1,2025-11-30 17:50:36.129117,2025-11-30 17:50:36.994066,0.864948,hit,1764525036.994066,-1.0,exhalation,P003
71,left,0.15,2025-11-30 17:50:38.129117,2025-11-30 17:50:38.794139,0.665021,hit,1764525038.794139,1.0,inhalation,P003
72,right,0.15,2025-11-30 17:50:43.129117,2025-11-30 17:50:43.779640,0.650523,hit,1764525043.77964,-1.0,exhalation,P003
73,left,0.15,2025-11-30 17:50:50.129117,2025-11-30 17:50:50.785681,0.656564,hit,1764525050.785681,-1.0,exhalation,P003
74,right,0.15,2025-11-30 17:50:52.129117,2025-11-30 17:50:53.024130,0.895012,hit,1764525053.02413,-1.0,exhalation,P003
75,left,0.15,2025-11-30 17:50:54.129117,2025-11-30 17:50:54.923513,0.794396,hit,1764525054.9235132,-1.0,exhalation,P003
76,left,0.05,2025-11-30 17:50:56.129117,2025-11-30 17:50:56.890882,0.761764,hit,1764525056.890882,1.0,inhalation,P003
77,left,0.15,2025-11-30 17:51:03.129117,2025-11-30 17:51:03.935570,0.806452,hit,1764525063.93557,-1.0,exhalation,P003
78,right,0.15,2025-11-30 17:51:10.129117,2025-11-30 17:51:10.775181,0.646064,hit,1764525070.775181,1.0,inhalation,P003
79,right,0.15,2025-11-30 17:51:15.129117,2025-11-30 17:51:15.802084,0.672967,hit,1764525075.8020842,1.0,inhalation,P003
80,left,0.05,2025-11-30 17:51:19.129117,2025-11-30 17:51:20.614716,1.485598,hit,1764525080.6147158,-1.0,exhalation,P003
81,left,0.15,2025-11-30 17:51:26.129117,2025-11-30 17:51:26.910573,0.781455,hit,1764525086.910573,-1.0,exhalation,P003
82,left,0.05,2025-11-30 17:51:30.129117,2025-11-30 17:51:31.041553,0.912436,hit,1764525091.0415528,-1.0,exhalation,P003
83,right,0.1,2025-11-30 17:51:37.129117,2025-11-30 17:51:37.874151,0.745034,hit,1764525097.874151,-1.0,exhalation,P003
84,left,0.1,2025-11-30 17:51:42.129117,2025-11-30 17:51:42.934770,0.805653,hit,1764525102.93477,-1.0,exhalation,P003
85,right,0.15,2025-11-30 17:51:46.129117,2025-11-30 17:51:46.975091,0.845973,hit,1764525106.975091,-1.0,exhalation,P003
86,left,0.05,2025-11-30 17:51:53.129117,2025-11-30 17:51:53.956224,0.827107,hit,1764525113.956224,-1.0,exhalation,P003
87,left,0.05,2025-11-30 17:51:58.129117,2025-11-30 17:51:58.862533,0.733416,hit,1764525118.862533,-1.0,exhalation,P003
88,right,0.1,2025-11-30 17:52:00.129117,2025-11-30 17:52:00.803862,0.674744,hit,1764525120.803862,-1.0,exhalation,P003
89,right,0.15,2025-11-30 17:52:07.129117,2025-11-30 17:52:07.822938,0.693821,hit,1764525127.8229382,1.0,inhalation,P003
90,right,0.1,2025-11-30 17:52:09.129117,2025-11-30 17:52:09.791177,0.662059,hit,1764525129.791177,-1.0,exhalation,P003
91,left,0.05,2025-11-30 17:52:11.129117,2025-11-30 17:52:11.810337,0.681219,hit,1764525131.810337,-1.0,exhalation,P003
92,right,0.15,2025-11-30 17:52:16.129117,2025-11-30 17:52:16.834342,0.705225,hit,1764525136.834342,-1.0,exhalation,P003
93,left,0.05,2025-11-30 17:52:23.129117,2025-11-30 17:52:23.825250,0.696132,hit,1764525143.82525,-1.0,exhalation,P003
94,right,0.05,2025-11-30 17:52:27.129117,2025-11-30 17:52:27.855503,0.726385,hit,1764525147.855503,-1.0,exhalation,P003
95,right,0.15,2025-11-30 17:52:29.129117,2025-11-30 17:52:29.798933,0.669815,hit,1764525149.798933,-1.0,exhalation,P003
96,right,0.15,2025-11-30 17:52:31.129117,2025-11-30 17:52:31.962909,0.833792,hit,1764525151.962909,-1.0,exhalation,P003
97,left,0.05,2025-11-30 17:52:36.129117,2025-11-30 17:52:36.831833,0.702715,hit,1764525156.8318331,-1.0,exhalation,P003
98,left,0.15,2025-11-30 17:52:40.129117,2025-11-30 17:52:40.855707,0.72659,hit,1764525160.855707,-1.0,exhalation,P003
99,left,0.1,2025-11-30 17:52:42.129117,2025-11-30 17:52:42.987887,0.85877,hit,1764525162.9878871,1.0,inhalation,P003
100,left,0.05,2025-11-30 17:52:47.129117,2025-11-30 17:52:48.106532,0.977414,hit,1764525168.106532,1.0,inhalation,P003
101,left,0.1,2025-11-30 17:52:54.129117,2025-11-30 17:52:54.970658,0.84154,hit,1764525174.970658,1.0,inhalation,P003
102,left,0.1,2025-11-30 17:52:56.129117,2025-11-30 17:52:56.893567,0.764449,hit,1764525176.893567,1.0,inhalation,P003
103,right,0.15,2025-11-30 17:53:03.129117,2025-11-30 17:53:03.847075,0.717958,hit,1764525183.847075,-1.0,exhalation,P003
104,right,0.1,2025-11-30 17:53:10.129117,2025-11-30 17:53:10.890292,0.761175,hit,1764525190.890292,1.0,inhalation,P003
105,right,0.1,2025-11-30 17:53:17.129117,2025-11-30 17:53:17.877954,0.748837,hit,1764525197.877954,-1.0,exhalation,P003
106,right,0.1,2025-11-30 17:53:24.129117,2025-11-30 17:53:24.908417,0.779299,hit,1764525204.908417,-1.0,exhalation,P003
107,right,0.05,2025-11-30 17:53:26.129117,2025-11-30 17:53:26.867983,0.738866,hit,1764525206.867983,-1.0,exhalation,P003
108,left,0.05,2025-11-30 17:53:33.129117,2025-11-30 17:53:33.921142,0.792025,hit,1764525213.921142,-1.0,exhalation,P003
109,left,0.15,2025-11-30 17:53:37.129117,2025-11-30 17:53:37.825360,0.696242,hit,1764525217.8253598,-1.0,exhalation,P003
110,left,0.15,2025-11-30 17:53:39.129117,2025-11-30 17:53:39.897976,0.768859,hit,1764525219.8979762,1.0,inhalation,P003
111,left,0.15,2025-11-30 17:53:44.129117,2025-11-30 17:53:45.109758,0.98064,hit,1764525225.109758,1.0,inhalation,P003
112,left,0.05,2025-11-30 17:53:48.129117,2025-11-30 17:53:48.914309,0.785192,hit,1764525228.914309,1.0,inhalation,P003
113,left,0.05,2025-11-30 17:53:50.129117,2025-11-30 17:53:50.918970,0.789853,hit,1764525230.91897,1.0,inhalation,P003
114,left,0.15,2025-11-30 17:53:54.129117,2025-11-30 17:53:54.875375,0.746257,hit,1764525234.875375,1.0,inhalation,P003
115,left,0.05,2025-11-30 17:53:59.129117,2025-11-30 17:53:59.890578,0.761461,hit,1764525239.890578,-1.0,exhalation,P003
116,right,0.05,2025-11-30 17:54:06.129117,2025-11-30 17:54:06.899213,0.770095,hit,1764525246.899213,-1.0,exhalation,P003
117,right,0.05,2025-11-30 17:54:13.129117,2025-11-30 17:54:13.906307,0.77719,hit,1764525253.906307,-1.0,exhalation,P003
118,right,0.05,2025-11-30 17:54:15.129117,2025-11-30 17:54:15.912382,0.783264,hit,1764525255.912382,1.0,inhalation,P003
119,left,0.05,2025-11-30 17:54:22.129117,2025-11-30 17:54:22.889779,0.760661,hit,1764525262.8897789,-1.0,exhalation,P003
120,left,0.1,2025-11-30 17:54:29.129117,2025-11-30 17:54:29.891230,0.762113,hit,1764525269.89123,-1.0,exhalation,P003
121,right,0.1,2025-11-30 17:54:31.129117,2025-11-30 17:54:31.994444,0.865326,hit,1764525271.994444,1.0,inhalation,P003
122,left,0.05,2025-11-30 17:54:38.129117,2025-11-30 17:54:39.077103,0.947986,hit,1764525279.0771031,-1.0,exhalation,P003
123,left,0.1,2025-11-30 17:54:40.129117,2025-11-30 17:54:41.181964,1.052846,hit,1764525281.181964,1.0,inhalation,P003
124,right,0.1,2025-11-30 17:54:47.129117,2025-11-30 17:54:47.978247,0.84913,hit,1764525287.978247,-1.0,exhalation,P003
125,left,0.1,2025-11-30 17:54:51.129117,2025-11-30 17:54:51.896448,0.76733,hit,1764525291.896448,1.0,inhalation,P003
126,right,0.1,2025-11-30 17:54:53.129117,2025-11-30 17:54:53.973958,0.844841,hit,1764525293.9739578,1.0,inhalation,P003
1,right,0.15,2025-11-30 19:34:06.954925,2025-11-30 19:34:07.468389,0.513464,hit,1764531247.468389,-1.0,exhalation,P004
2,right,0.05,2025-11-30 19:34:10.954925,2025-11-30 19:34:11.471466,0.516541,hit,1764531251.471466,1.0,inhalation,P004
3,left,0.1,2025-11-30 19:34:14.954925,2025-11-30 19:34:15.469883,0.514958,hit,1764531255.469883,-1.0,exhalation,P004
4,right,0.15,2025-11-30 19:34:16.954925,2025-11-30 19:34:17.519950,0.565025,hit,1764531257.5199502,1.0,inhalation,P004
5,right,0.05,2025-11-30 19:34:23.954925,2025-11-30 19:34:24.477399,0.522474,hit,1764531264.477399,-1.0,exhalation,P004
6,right,0.1,2025-11-30 19:34:28.954925,2025-11-30 19:34:29.522117,0.567193,hit,1764531269.5221171,-1.0,exhalation,P004
7,left,0.15,2025-11-30 19:34:32.954925,2025-11-30 19:34:33.417906,0.462981,hit,1764531273.4179058,-1.0,exhalation,P004
8,right,0.05,2025-11-30 19:34:39.954925,2025-11-30 19:34:40.518279,0.563355,hit,1764531280.5182788,-1.0,exhalation,P004
9,right,0.1,2025-11-30 19:34:46.954925,2025-11-30 19:34:47.408776,0.453852,hit,1764531287.408776,1.0,inhalation,P004
10,left,0.1,2025-11-30 19:34:51.954925,2025-11-30 19:34:52.459198,0.504274,hit,1764531292.459198,-1.0,exhalation,P004
11,left,0.1,2025-11-30 19:34:55.954925,2025-11-30 19:34:56.457691,0.502767,hit,1764531296.457691,-1.0,exhalation,P004
12,left,0.15,2025-11-30 19:34:59.954925,2025-11-30 19:35:00.406913,0.451988,hit,1764531300.406913,1.0,inhalation,P004
13,left,0.15,2025-11-30 19:35:06.954925,2025-11-30 19:35:07.438057,0.483133,hit,1764531307.438057,-1.0,exhalation,P004
14,right,0.15,2025-11-30 19:35:11.954925,2025-11-30 19:35:12.413950,0.459025,hit,1764531312.41395,1.0,inhalation,P004
15,left,0.1,2025-11-30 19:35:18.954925,2025-11-30 19:35:19.468871,0.513947,hit,1764531319.4688709,-1.0,exhalation,P004
16,left,0.05,2025-11-30 19:35:23.954925,2025-11-30 19:35:24.460480,0.505556,hit,1764531324.46048,-1.0,exhalation,P004
17,left,0.1,2025-11-30 19:35:25.954925,2025-11-30 19:35:26.471755,0.51683,hit,1764531326.471755,1.0,inhalation,P004
18,right,0.15,2025-11-30 19:35:30.954925,2025-11-30 19:35:31.422680,0.467756,hit,1764531331.42268,-1.0,exhalation,P004
19,left,0.1,2025-11-30 19:35:34.954925,2025-11-30 19:35:35.419740,0.464815,hit,1764531335.41974,-1.0,exhalation,P004
20,right,0.1,2025-11-30 19:35:39.954925,2025-11-30 19:35:40.451994,0.497069,hit,1764531340.4519942,-1.0,exhalation,P004
21,right,0.1,2025-11-30 19:35:41.954925,2025-11-30 19:35:42.441395,0.48647,hit,1764531342.441395,-1.0,exhalation,P004
22,right,0.15,2025-11-30 19:35:43.954925,2025-11-30 19:35:44.431266,0.476341,hit,1764531344.431266,-1.0,exhalation,P004
23,left,0.15,2025-11-30 19:35:45.954925,2025-11-30 19:35:46.396385,0.44146,hit,1764531346.396385,-1.0,exhalation,P004
24,right,0.05,2025-11-30 19:35:52.954925,2025-11-30 19:35:53.451151,0.496226,hit,1764531353.4511511,-1.0,exhalation,P004
25,left,0.15,2025-11-30 19:35:57.954925,2025-11-30 19:35:58.419050,0.464125,hit,1764531358.41905,-1.0,exhalation,P004
26,left,0.1,2025-11-30 19:36:01.954925,2025-11-30 19:36:02.420489,0.465565,hit,1764531362.420489,-1.0,exhalation,P004
27,right,0.15,2025-11-30 19:36:03.954925,2025-11-30 19:36:04.404555,0.44963,hit,1764531364.404555,1.0,inhalation,P004
28,right,0.15,2025-11-30 19:36:05.954925,2025-11-30 19:36:06.403876,0.448951,hit,1764531366.403876,1.0,inhalation,P004
29,left,0.05,2025-11-30 19:36:09.954925,2025-11-30 19:36:10.432752,0.477828,hit,1764531370.432752,1.0,inhalation,P004
30,right,0.05,2025-11-30 19:36:16.954925,2025-11-30 19:36:17.452287,0.497363,hit,1764531377.452287,-1.0,exhalation,P004
31,left,0.05,2025-11-30 19:36:23.954925,2025-11-30 19:36:24.447696,0.492771,hit,1764531384.447696,-1.0,exhalation,P004
32,right,0.05,2025-11-30 19:36:30.954925,2025-11-30 19:36:31.568455,0.61353,hit,1764531391.568455,-1.0,exhalation,P004
33,right,0.05,2025-11-30 19:36:32.954925,2025-11-30 19:36:33.463938,0.509013,hit,1764531393.463938,-1.0,exhalation,P004
34,right,0.15,2025-11-30 19:36:37.954925,2025-11-30 19:36:38.458436,0.503512,hit,1764531398.458436,1.0,inhalation,P004
35,right,0.05,2025-11-30 19:36:39.954925,2025-11-30 19:36:40.395439,0.440514,hit,1764531400.3954391,-1.0,exhalation,P004
36,right,0.15,2025-11-30 19:36:43.954925,2025-11-30 19:36:44.416536,0.461611,hit,1764531404.416536,1.0,inhalation,P004
37,left,0.1,2025-11-30 19:36:48.954925,2025-11-30 19:36:49.441622,0.486697,hit,1764531409.441622,-1.0,exhalation,P004
38,left,0.1,2025-11-30 19:36:52.954925,2025-11-30 19:36:53.433458,0.478533,hit,1764531413.433458,-1.0,exhalation,P004
39,right,0.15,2025-11-30 19:36:59.954925,2025-11-30 19:37:00.587560,0.632635,hit,1764531420.58756,-1.0,exhalation,P004
40,right,0.05,2025-11-30 19:37:06.954925,2025-11-30 19:37:07.589587,0.634662,hit,1764531427.589587,-1.0,exhalation,P004
41,left,0.15,2025-11-30 19:37:10.954925,2025-11-30 19:37:11.599486,0.644561,hit,1764531431.599486,-1.0,exhalation,P004
42,left,0.05,2025-11-30 19:37:15.954925,2025-11-30 19:37:16.567081,0.612157,hit,1764531436.567081,-1.0,exhalation,P004
43,left,0.1,2025-11-30 19:37:20.954925,2025-11-30 19:37:21.561132,0.606207,hit,1764531441.561132,-1.0,exhalation,P004
44,left,0.15,2025-11-30 19:37:27.954925,2025-11-30 19:37:28.580040,0.625116,hit,1764531448.58004,-1.0,exhalation,P004
45,left,0.1,2025-11-30 19:37:29.954925,2025-11-30 19:37:30.563815,0.608891,hit,1764531450.5638149,1.0,inhalation,P004
46,right,0.1,2025-11-30 19:37:34.954925,2025-11-30 19:37:35.584473,0.629548,hit,1764531455.5844731,-1.0,exhalation,P004
47,left,0.1,2025-11-30 19:37:36.954925,2025-11-30 19:37:37.584178,0.629254,hit,1764531457.584178,-1.0,exhalation,P004
48,left,0.05,2025-11-30 19:37:41.954925,2025-11-30 19:37:42.596298,0.641373,hit,1764531462.596298,-1.0,exhalation,P004
49,right,0.1,2025-11-30 19:37:43.954925,2025-11-30 19:37:44.558519,0.603594,hit,1764531464.5585191,1.0,inhalation,P004
50,right,0.1,2025-11-30 19:37:50.954925,2025-11-30 19:37:51.567115,0.61219,hit,1764531471.567115,-1.0,exhalation,P004
51,right,0.05,2025-11-30 19:37:57.954925,2025-11-30 19:37:58.570444,0.615519,hit,1764531478.570444,-1.0,exhalation,P004
52,right,0.05,2025-11-30 19:38:01.954925,2025-11-30 19:38:02.578361,0.623436,hit,1764531482.578361,-1.0,exhalation,P004
53,left,0.15,2025-11-30 19:38:05.954925,2025-11-30 19:38:06.550753,0.595828,hit,1764531486.550753,-1.0,exhalation,P004
54,left,0.05,2025-11-30 19:38:10.954925,2025-11-30 19:38:11.544030,0.589105,hit,1764531491.54403,1.0,inhalation,P004
55,right,0.05,2025-11-30 19:38:12.954925,2025-11-30 19:38:13.574038,0.619113,hit,1764531493.574038,-1.0,exhalation,P004
56,right,0.15,2025-11-30 19:38:17.954925,2025-11-30 19:38:18.546109,0.591184,hit,1764531498.546109,1.0,inhalation,P004
57,right,0.1,2025-11-30 19:38:19.954925,2025-11-30 19:38:20.536004,0.581079,hit,1764531500.536004,1.0,inhalation,P004
58,right,0.05,2025-11-30 19:38:24.954925,2025-11-30 19:38:25.554170,0.599245,hit,1764531505.55417,-1.0,exhalation,P004
59,right,0.05,2025-11-30 19:38:28.954925,2025-11-30 19:38:29.576869,0.621944,hit,1764531509.576869,1.0,inhalation,P004
60,right,0.05,2025-11-30 19:38:33.954925,2025-11-30 19:38:34.558549,0.603624,hit,1764531514.558549,1.0,inhalation,P004
61,right,0.1,2025-11-30 19:38:35.954925,2025-11-30 19:38:36.520829,0.565905,hit,1764531516.520829,1.0,inhalation,P004
62,left,0.15,2025-11-30 19:38:40.954925,2025-11-30 19:38:41.545345,0.59042,hit,1764531521.545345,1.0,inhalation,P004
63,left,0.1,2025-11-30 19:38:42.954925,2025-11-30 19:38:43.551574,0.59665,hit,1764531523.551574,1.0,inhalation,P004
64,right,0.1,2025-11-30 19:38:47.954925,2025-11-30 19:38:48.548759,0.593834,hit,1764531528.548759,-1.0,exhalation,P004
65,left,0.15,2025-11-30 19:38:52.954925,2025-11-30 19:38:53.568793,0.613868,hit,1764531533.568793,1.0,inhalation,P004
66,left,0.15,2025-11-30 19:38:59.954925,2025-11-30 19:39:00.549675,0.59475,hit,1764531540.549675,1.0,inhalation,P004
67,right,0.05,2025-11-30 19:39:04.954925,2025-11-30 19:39:05.571120,0.616195,hit,1764531545.57112,1.0,inhalation,P004
68,right,0.1,2025-11-30 19:39:06.954925,2025-11-30 19:39:07.583498,0.628573,hit,1764531547.583498,-1.0,exhalation,P004
69,right,0.1,2025-11-30 19:39:13.954925,2025-11-30 19:39:14.548172,0.593247,hit,1764531554.548172,-1.0,exhalation,P004
70,left,0.1,2025-11-30 19:39:15.954925,2025-11-30 19:39:16.555397,0.600472,hit,1764531556.555397,-1.0,exhalation,P004
71,left,0.15,2025-11-30 19:39:17.954925,2025-11-30 19:39:18.542757,0.587832,hit,1764531558.542757,1.0,inhalation,P004
72,right,0.15,2025-11-30 19:39:22.954925,2025-11-30 19:39:23.532020,0.577096,hit,1764531563.53202,-1.0,exhalation,P004
73,left,0.15,2025-11-30 19:39:29.954925,2025-11-30 19:39:30.607601,0.652676,hit,1764531570.607601,-1.0,exhalation,P004
74,right,0.15,2025-11-30 19:39:31.954925,2025-11-30 19:39:32.492503,0.537578,hit,1764531572.492503,-1.0,exhalation,P004
75,left,0.15,2025-11-30 19:39:33.954925,2025-11-30 19:39:34.491054,0.53613,hit,1764531574.491054,-1.0,exhalation,P004
76,left,0.05,2025-11-30 19:39:35.954925,2025-11-30 19:39:36.523300,0.568375,hit,1764531576.5233002,-1.0,exhalation,P004
77,left,0.15,2025-11-30 19:39:42.954925,2025-11-30 19:39:43.588765,0.633841,hit,1764531583.588765,1.0,inhalation,P004
78,right,0.15,2025-11-30 19:39:49.954925,2025-11-30 19:39:50.536225,0.5813,hit,1764531590.536225,-1.0,exhalation,P004
79,right,0.15,2025-11-30 19:39:54.954925,2025-11-30 19:39:55.553579,0.598655,hit,1764531595.553579,-1.0,exhalation,P004
80,left,0.05,2025-11-30 19:39:58.954925,2025-11-30 19:39:59.583458,0.628533,hit,1764531599.583458,-1.0,exhalation,P004
81,left,0.15,2025-11-30 19:40:05.954925,2025-11-30 19:40:06.605753,0.650828,hit,1764531606.6057532,-1.0,exhalation,P004
82,left,0.05,2025-11-30 19:40:09.954925,2025-11-30 19:40:10.566464,0.611539,hit,1764531610.566464,-1.0,exhalation,P004
83,right,0.1,2025-11-30 19:40:16.954925,2025-11-30 19:40:17.586949,0.632024,hit,1764531617.586949,1.0,inhalation,P004
84,left,0.1,2025-11-30 19:40:21.954925,2025-11-30 19:40:22.627397,0.672472,hit,1764531622.627397,1.0,inhalation,P004
85,right,0.15,2025-11-30 19:40:25.954925,2025-11-30 19:40:26.552330,0.597406,hit,1764531626.55233,1.0,inhalation,P004
86,left,0.05,2025-11-30 19:40:32.954925,2025-11-30 19:40:33.561557,0.606632,hit,1764531633.561557,-1.0,exhalation,P004
87,left,0.05,2025-11-30 19:40:37.954925,2025-11-30 19:40:38.557825,0.602901,hit,1764531638.557825,-1.0,exhalation,P004
88,right,0.1,2025-11-30 19:40:39.954925,2025-11-30 19:40:40.568090,0.613165,hit,1764531640.5680902,-1.0,exhalation,P004
89,right,0.15,2025-11-30 19:40:46.954925,2025-11-30 19:40:47.771257,0.816333,hit,1764531647.7712572,1.0,inhalation,P004
90,right,0.1,2025-11-30 19:40:48.954925,2025-11-30 19:40:49.522637,0.567713,hit,1764531649.5226371,-1.0,exhalation,P004
91,left,0.05,2025-11-30 19:40:50.954925,2025-11-30 19:40:51.551265,0.596341,hit,1764531651.551265,-1.0,exhalation,P004
92,right,0.15,2025-11-30 19:40:55.954925,2025-11-30 19:40:56.612122,0.657197,hit,1764531656.612122,-1.0,exhalation,P004
93,left,0.05,2025-11-30 19:41:02.954925,2025-11-30 19:41:03.585654,0.630729,hit,1764531663.585654,1.0,inhalation,P004
94,right,0.05,2025-11-30 19:41:06.954925,2025-11-30 19:41:07.537813,0.582888,hit,1764531667.537813,-1.0,exhalation,P004
95,right,0.15,2025-11-30 19:41:08.954925,2025-11-30 19:41:09.532225,0.577301,hit,1764531669.5322251,1.0,inhalation,P004
96,right,0.15,2025-11-30 19:41:10.954925,2025-11-30 19:41:11.510878,0.555953,hit,1764531671.5108778,-1.0,exhalation,P004
97,left,0.05,2025-11-30 19:41:15.954925,2025-11-30 19:41:16.544662,0.589738,hit,1764531676.544662,-1.0,exhalation,P004
98,left,0.15,2025-11-30 19:41:19.954925,2025-11-30 19:41:20.524565,0.569641,hit,1764531680.524565,-1.0,exhalation,P004
99,left,0.1,2025-11-30 19:41:21.954925,2025-11-30 19:41:22.529293,0.574368,hit,1764531682.529293,-1.0,exhalation,P004
100,left,0.05,2025-11-30 19:41:26.954925,2025-11-30 19:41:27.569643,0.614718,hit,1764531687.569643,-1.0,exhalation,P004
101,left,0.1,2025-11-30 19:41:33.954925,2025-11-30 19:41:34.588401,0.633476,hit,1764531694.5884008,-1.0,exhalation,P004
102,left,0.1,2025-11-30 19:41:35.954925,2025-11-30 19:41:36.566857,0.611932,hit,1764531696.5668569,-1.0,exhalation,P004
103,right,0.15,2025-11-30 19:41:42.954925,2025-11-30 19:41:43.572061,0.617137,hit,1764531703.5720608,-1.0,exhalation,P004
104,right,0.1,2025-11-30 19:41:49.954925,2025-11-30 19:41:50.778603,0.823678,hit,1764531710.778603,1.0,inhalation,P004
105,right,0.1,2025-11-30 19:41:56.954925,2025-11-30 19:41:57.580335,0.62541,hit,1764531717.5803351,-1.0,exhalation,P004
106,right,0.1,2025-11-30 19:42:03.954925,2025-11-30 19:42:04.603169,0.648244,hit,1764531724.603169,1.0,inhalation,P004
107,right,0.05,2025-11-30 19:42:05.954925,2025-11-30 19:42:06.586984,0.63206,hit,1764531726.586984,-1.0,exhalation,P004
108,left,0.05,2025-11-30 19:42:12.954925,2025-11-30 19:42:13.584137,0.629213,hit,1764531733.584137,-1.0,exhalation,P004
109,left,0.15,2025-11-30 19:42:16.954925,2025-11-30 19:42:17.582959,0.628035,hit,1764531737.5829592,1.0,inhalation,P004
110,left,0.15,2025-11-30 19:42:18.954925,2025-11-30 19:42:19.543404,0.588479,hit,1764531739.543404,-1.0,exhalation,P004
111,left,0.15,2025-11-30 19:42:23.954925,2025-11-30 19:42:24.557658,0.602733,hit,1764531744.5576582,-1.0,exhalation,P004
112,left,0.05,2025-11-30 19:42:27.954925,2025-11-30 19:42:28.536043,0.581118,hit,1764531748.536043,1.0,inhalation,P004
113,left,0.05,2025-11-30 19:42:29.954925,2025-11-30 19:42:30.533825,0.5789,hit,1764531750.533825,-1.0,exhalation,P004
114,left,0.15,2025-11-30 19:42:33.954925,2025-11-30 19:42:34.530492,0.575567,hit,1764531754.5304918,-1.0,exhalation,P004
115,left,0.05,2025-11-30 19:42:38.954925,2025-11-30 19:42:39.553980,0.599055,hit,1764531759.55398,-1.0,exhalation,P004
116,right,0.05,2025-11-30 19:42:45.954925,2025-11-30 19:42:46.581147,0.626222,hit,1764531766.581147,1.0,inhalation,P004
117,right,0.05,2025-11-30 19:42:52.954925,2025-11-30 19:42:53.568128,0.613204,hit,1764531773.568128,1.0,inhalation,P004
118,right,0.05,2025-11-30 19:42:54.954925,2025-11-30 19:42:55.537647,0.582722,hit,1764531775.537647,-1.0,exhalation,P004
119,left,0.05,2025-11-30 19:43:01.954925,2025-11-30 19:43:02.569270,0.614346,hit,1764531782.56927,1.0,inhalation,P004
120,left,0.1,2025-11-30 19:43:08.954925,2025-11-30 19:43:09.624112,0.669187,hit,1764531789.624112,-1.0,exhalation,P004
121,right,0.1,2025-11-30 19:43:10.954925,2025-11-30 19:43:11.553751,0.598827,hit,1764531791.553751,-1.0,exhalation,P004
122,left,0.05,2025-11-30 19:43:17.954925,2025-11-30 19:43:18.612607,0.657683,hit,1764531798.612607,-1.0,exhalation,P004
123,left,0.1,2025-11-30 19:43:19.954925,2025-11-30 19:43:20.547185,0.592261,hit,1764531800.547185,1.0,inhalation,P004
124,right,0.1,2025-11-30 19:43:26.954925,2025-11-30 19:43:27.588830,0.633905,hit,1764531807.58883,-1.0,exhalation,P004
125,left,0.1,2025-11-30 19:43:30.954925,2025-11-30 19:43:31.560271,0.605346,hit,1764531811.560271,-1.0,exhalation,P004
126,right,0.1,2025-11-30 19:43:32.954925,2025-11-30 19:43:33.520501,0.565576,hit,1764531813.520501,-1.0,exhalation,P004
1,right,0.15,2025-12-01 09:18:05.737408,2025-12-01 09:18:06.437691,0.700283,hit,1764580686.437691,1.0,inhalation,P005
2,right,0.05,2025-12-01 09:18:09.737408,2025-12-01 09:18:10.159384,0.421976,hit,1764580690.159384,1.0,inhalation,P005
3,left,0.1,2025-12-01 09:18:13.737408,2025-12-01 09:18:14.200853,0.463445,hit,1764580694.200853,-1.0,exhalation,P005
4,right,0.15,2025-12-01 09:18:15.737408,2025-12-01 09:18:16.195755,0.458347,hit,1764580696.195755,1.0,inhalation,P005
5,right,0.05,2025-12-01 09:18:22.737408,2025-12-01 09:18:23.269731,0.532323,hit,1764580703.269731,-1.0,exhalation,P005
6,right,0.1,2025-12-01 09:18:27.737408,2025-12-01 09:18:28.172680,0.435272,hit,1764580708.17268,-1.0,exhalation,P005
7,left,0.15,2025-12-01 09:18:31.737408,2025-12-01 09:18:32.183909,0.446501,hit,1764580712.1839092,-1.0,exhalation,P005
8,right,0.05,2025-12-01 09:18:38.737408,2025-12-01 09:18:39.218387,0.48098,hit,1764580719.218387,-1.0,exhalation,P005
9,right,0.1,2025-12-01 09:18:45.737408,2025-12-01 09:18:46.169196,0.431788,hit,1764580726.169196,1.0,inhalation,P005
10,left,0.1,2025-12-01 09:18:50.737408,2025-12-01 09:18:51.175603,0.438196,hit,1764580731.175603,-1.0,exhalation,P005
11,left,0.1,2025-12-01 09:18:54.737408,2025-12-01 09:18:55.153399,0.415991,hit,1764580735.153399,1.0,inhalation,P005
12,left,0.15,2025-12-01 09:18:58.737408,2025-12-01 09:18:59.149655,0.412247,hit,1764580739.149655,1.0,inhalation,P005
13,left,0.15,2025-12-01 09:19:05.737408,2025-12-01 09:19:06.198442,0.461034,hit,1764580746.198442,-1.0,exhalation,P005
14,right,0.15,2025-12-01 09:19:10.737408,2025-12-01 09:19:11.177016,0.439609,hit,1764580751.177016,1.0,inhalation,P005
15,left,0.1,2025-12-01 09:19:17.737408,2025-12-01 09:19:18.164560,0.427153,hit,1764580758.1645598,-1.0,exhalation,P005
16,left,0.05,2025-12-01 09:19:22.737408,2025-12-01 09:19:23.208505,0.471097,hit,1764580763.2085052,-1.0,exhalation,P005
17,left,0.1,2025-12-01 09:19:24.737408,2025-12-01 09:19:25.183125,0.445718,hit,1764580765.183125,-1.0,exhalation,P005
18,right,0.15,2025-12-01 09:19:29.737408,2025-12-01 09:19:30.219695,0.482287,hit,1764580770.219695,1.0,inhalation,P005
19,left,0.1,2025-12-01 09:19:33.737408,2025-12-01 09:19:34.150728,0.41332,hit,1764580774.150728,-1.0,exhalation,P005
20,right,0.1,2025-12-01 09:19:38.737408,2025-12-01 09:19:39.195574,0.458166,hit,1764580779.195574,1.0,inhalation,P005
21,right,0.1,2025-12-01 09:19:40.737408,2025-12-01 09:19:41.190554,0.453147,hit,1764580781.190554,-1.0,exhalation,P005
22,right,0.15,2025-12-01 09:19:42.737408,2025-12-01 09:19:43.226121,0.488714,hit,1764580783.226121,1.0,inhalation,P005
23,left,0.15,2025-12-01 09:19:44.737408,2025-12-01 09:19:45.155355,0.417948,hit,1764580785.155355,-1.0,exhalation,P005
24,right,0.05,2025-12-01 09:19:51.737408,2025-12-01 09:19:52.193040,0.455632,hit,1764580792.19304,-1.0,exhalation,P005
25,left,0.15,2025-12-01 09:19:56.737408,2025-12-01 09:19:57.188405,0.450997,hit,1764580797.188405,-1.0,exhalation,P005
26,left,0.1,2025-12-01 09:20:00.737408,2025-12-01 09:20:01.157920,0.420512,hit,1764580801.15792,-1.0,exhalation,P005
27,right,0.15,2025-12-01 09:20:02.737408,2025-12-01 09:20:03.168283,0.430875,hit,1764580803.168283,1.0,inhalation,P005
28,right,0.15,2025-12-01 09:20:04.737408,2025-12-01 09:20:05.195796,0.458388,hit,1764580805.195796,1.0,inhalation,P005
29,left,0.05,2025-12-01 09:20:08.737408,2025-12-01 09:20:09.154729,0.417321,hit,1764580809.154729,1.0,inhalation,P005
30,right,0.05,2025-12-01 09:20:15.737408,2025-12-01 09:20:16.210231,0.472823,hit,1764580816.210231,-1.0,exhalation,P005
31,left,0.05,2025-12-01 09:20:22.737408,2025-12-01 09:20:23.177030,0.439622,hit,1764580823.1770298,-1.0,exhalation,P005
32,right,0.05,2025-12-01 09:20:29.737408,2025-12-01 09:20:30.230142,0.492735,hit,1764580830.230142,-1.0,exhalation,P005
33,right,0.05,2025-12-01 09:20:31.737408,2025-12-01 09:20:32.183042,0.445634,hit,1764580832.183042,-1.0,exhalation,P005
34,right,0.15,2025-12-01 09:20:36.737408,2025-12-01 09:20:37.180741,0.443333,hit,1764580837.180741,1.0,inhalation,P005
35,right,0.05,2025-12-01 09:20:38.737408,2025-12-01 09:20:39.179587,0.44218,hit,1764580839.1795871,-1.0,exhalation,P005
36,right,0.15,2025-12-01 09:20:42.737408,2025-12-01 09:20:43.166612,0.429204,hit,1764580843.166612,1.0,inhalation,P005
37,left,0.1,2025-12-01 09:20:47.737408,2025-12-01 09:20:48.173002,0.435594,hit,1764580848.173002,-1.0,exhalation,P005
38,left,0.1,2025-12-01 09:20:51.737408,2025-12-01 09:20:52.186140,0.448732,hit,1764580852.1861398,1.0,inhalation,P005
39,right,0.15,2025-12-01 09:20:58.737408,2025-12-01 09:20:59.365074,0.627667,hit,1764580859.365074,-1.0,exhalation,P005
40,right,0.05,2025-12-01 09:21:05.737408,2025-12-01 09:21:06.305121,0.567713,hit,1764580866.305121,-1.0,exhalation,P005
41,left,0.15,2025-12-01 09:21:09.737408,2025-12-01 09:21:10.280165,0.542758,hit,1764580870.2801652,1.0,inhalation,P005
42,left,0.05,2025-12-01 09:21:14.737408,2025-12-01 09:21:15.391620,0.654212,hit,1764580875.3916202,-1.0,exhalation,P005
43,left,0.1,2025-12-01 09:21:19.737408,2025-12-01 09:21:20.301891,0.564484,hit,1764580880.301891,-1.0,exhalation,P005
44,left,0.15,2025-12-01 09:21:26.737408,2025-12-01 09:21:27.337920,0.600513,hit,1764580887.33792,-1.0,exhalation,P005
45,left,0.1,2025-12-01 09:21:28.737408,2025-12-01 09:21:29.288690,0.551282,hit,1764580889.28869,-1.0,exhalation,P005
46,right,0.1,2025-12-01 09:21:33.737408,2025-12-01 09:21:34.318444,0.581036,hit,1764580894.318444,1.0,inhalation,P005
47,left,0.1,2025-12-01 09:21:35.737408,2025-12-01 09:21:36.271004,0.533596,hit,1764580896.271004,-1.0,exhalation,P005
48,left,0.05,2025-12-01 09:21:40.737408,2025-12-01 09:21:41.303278,0.565871,hit,1764580901.303278,-1.0,exhalation,P005
49,right,0.1,2025-12-01 09:21:42.737408,2025-12-01 09:21:43.256292,0.518884,hit,1764580903.256292,1.0,inhalation,P005
50,right,0.1,2025-12-01 09:21:49.737408,2025-12-01 09:21:50.359992,0.622584,hit,1764580910.359992,-1.0,exhalation,P005
51,right,0.05,2025-12-01 09:21:56.737408,2025-12-01 09:21:57.344280,0.606872,hit,1764580917.34428,1.0,inhalation,P005
52,right,0.05,2025-12-01 09:22:00.737408,2025-12-01 09:22:01.257174,0.519767,hit,1764580921.257174,-1.0,exhalation,P005
53,left,0.15,2025-12-01 09:22:04.737408,2025-12-01 09:22:05.267248,0.52984,hit,1764580925.2672482,-1.0,exhalation,P005
54,left,0.05,2025-12-01 09:22:09.737408,2025-12-01 09:22:10.524374,0.786967,hit,1764580930.524374,1.0,inhalation,P005
55,right,0.05,2025-12-01 09:22:11.737408,2025-12-01 09:22:12.330656,0.593249,hit,1764580932.330656,1.0,inhalation,P005
56,right,0.15,2025-12-01 09:22:16.737408,2025-12-01 09:22:17.303993,0.566585,hit,1764580937.303993,-1.0,exhalation,P005
57,right,0.1,2025-12-01 09:22:18.737408,2025-12-01 09:22:19.310182,0.572774,hit,1764580939.310182,-1.0,exhalation,P005
58,right,0.05,2025-12-01 09:22:23.737408,2025-12-01 09:22:24.377847,0.640439,hit,1764580944.377847,-1.0,exhalation,P005
59,right,0.05,2025-12-01 09:22:27.737408,2025-12-01 09:22:28.375303,0.637895,hit,1764580948.375303,-1.0,exhalation,P005
60,right,0.05,2025-12-01 09:22:32.737408,2025-12-01 09:22:33.399775,0.662368,hit,1764580953.399775,-1.0,exhalation,P005
61,right,0.1,2025-12-01 09:22:34.737408,2025-12-01 09:22:35.295255,0.557848,hit,1764580955.295255,-1.0,exhalation,P005
62,left,0.15,2025-12-01 09:22:39.737408,2025-12-01 09:22:40.387498,0.650091,hit,1764580960.387498,-1.0,exhalation,P005
63,left,0.1,2025-12-01 09:22:41.737408,2025-12-01 09:22:42.295969,0.558561,hit,1764580962.295969,1.0,inhalation,P005
64,right,0.1,2025-12-01 09:22:46.737408,2025-12-01 09:22:47.352680,0.615273,hit,1764580967.35268,1.0,inhalation,P005
65,left,0.15,2025-12-01 09:22:51.737408,2025-12-01 09:22:52.408999,0.671591,hit,1764580972.408999,-1.0,exhalation,P005
66,left,0.15,2025-12-01 09:22:58.737408,2025-12-01 09:22:59.453158,0.715751,hit,1764580979.453158,1.0,inhalation,P005
67,right,0.05,2025-12-01 09:23:03.737408,2025-12-01 09:23:04.427327,0.68992,hit,1764580984.427327,-1.0,exhalation,P005
68,right,0.1,2025-12-01 09:23:05.737408,2025-12-01 09:23:06.432608,0.6952,hit,1764580986.432608,1.0,inhalation,P005
69,right,0.1,2025-12-01 09:23:12.737408,2025-12-01 09:23:13.364001,0.626593,hit,1764580993.364001,-1.0,exhalation,P005
70,left,0.1,2025-12-01 09:23:14.737408,2025-12-01 09:23:15.393408,0.656,hit,1764580995.393408,1.0,inhalation,P005
71,left,0.15,2025-12-01 09:23:16.737408,2025-12-01 09:23:17.299205,0.561797,hit,1764580997.299205,-1.0,exhalation,P005
72,right,0.15,2025-12-01 09:23:21.737408,2025-12-01 09:23:22.361870,0.624462,hit,1764581002.36187,-1.0,exhalation,P005
73,left,0.15,2025-12-01 09:23:28.737408,2025-12-01 09:23:29.487400,0.749992,hit,1764581009.4874,1.0,inhalation,P005
74,right,0.15,2025-12-01 09:23:30.737408,2025-12-01 09:23:31.330012,0.592604,hit,1764581011.3300118,-1.0,exhalation,P005
75,left,0.15,2025-12-01 09:23:32.737408,2025-12-01 09:23:33.298557,0.561149,hit,1764581013.298557,-1.0,exhalation,P005
76,left,0.05,2025-12-01 09:23:34.737408,2025-12-01 09:23:35.287479,0.550071,hit,1764581015.287479,-1.0,exhalation,P005
77,left,0.15,2025-12-01 09:23:41.737408,2025-12-01 09:23:42.406674,0.669267,hit,1764581022.406674,-1.0,exhalation,P005
78,right,0.15,2025-12-01 09:23:48.737408,2025-12-01 09:23:49.529185,0.791777,hit,1764581029.529185,1.0,inhalation,P005
79,right,0.15,2025-12-01 09:23:53.737408,2025-12-01 09:23:54.335432,0.598024,hit,1764581034.335432,-1.0,exhalation,P005
80,left,0.05,2025-12-01 09:23:57.737408,2025-12-01 09:23:58.273630,0.536223,hit,1764581038.27363,1.0,inhalation,P005
81,left,0.15,2025-12-01 09:24:04.737408,2025-12-01 09:24:05.368062,0.630655,hit,1764581045.368062,-1.0,exhalation,P005
82,left,0.05,2025-12-01 09:24:08.737408,2025-12-01 09:24:09.333349,0.595941,hit,1764581049.3333492,-1.0,exhalation,P005
83,right,0.1,2025-12-01 09:24:15.737408,2025-12-01 09:24:16.355276,0.617868,hit,1764581056.355276,1.0,inhalation,P005
84,left,0.1,2025-12-01 09:24:20.737408,2025-12-01 09:24:21.348996,0.611588,hit,1764581061.3489962,1.0,inhalation,P005
85,right,0.15,2025-12-01 09:24:24.737408,2025-12-01 09:24:25.319665,0.582257,hit,1764581065.319665,1.0,inhalation,P005
86,left,0.05,2025-12-01 09:24:31.737408,2025-12-01 09:24:32.441485,0.704077,hit,1764581072.4414852,1.0,inhalation,P005
87,left,0.05,2025-12-01 09:24:36.737408,2025-12-01 09:24:37.322882,0.585474,hit,1764581077.322882,-1.0,exhalation,P005
88,right,0.1,2025-12-01 09:24:38.737408,2025-12-01 09:24:39.328217,0.59081,hit,1764581079.328217,-1.0,exhalation,P005
89,right,0.15,2025-12-01 09:24:45.737408,2025-12-01 09:24:46.357989,0.620581,hit,1764581086.357989,-1.0,exhalation,P005
90,right,0.1,2025-12-01 09:24:47.737408,2025-12-01 09:24:48.313628,0.57622,hit,1764581088.313628,-1.0,exhalation,P005
91,left,0.05,2025-12-01 09:24:49.737408,2025-12-01 09:24:50.346858,0.60945,hit,1764581090.346858,1.0,inhalation,P005
92,right,0.15,2025-12-01 09:24:54.737408,2025-12-01 09:24:55.321703,0.584295,hit,1764581095.321703,-1.0,exhalation,P005
93,left,0.05,2025-12-01 09:25:01.737408,2025-12-01 09:25:02.407836,0.670428,hit,1764581102.407836,-1.0,exhalation,P005
94,right,0.05,2025-12-01 09:25:05.737408,2025-12-01 09:25:06.332554,0.595146,hit,1764581106.332554,-1.0,exhalation,P005
95,right,0.15,2025-12-01 09:25:07.737408,2025-12-01 09:25:08.319782,0.582374,hit,1764581108.3197818,-1.0,exhalation,P005
96,right,0.15,2025-12-01 09:25:09.737408,2025-12-01 09:25:10.294459,0.557052,hit,1764581110.2944589,1.0,inhalation,P005
97,left,0.05,2025-12-01 09:25:14.737408,2025-12-01 09:25:15.338696,0.601288,hit,1764581115.338696,-1.0,exhalation,P005
98,left,0.15,2025-12-01 09:25:18.737408,2025-12-01 09:25:19.353455,0.616048,hit,1764581119.353455,1.0,inhalation,P005
99,left,0.1,2025-12-01 09:25:20.737408,2025-12-01 09:25:21.278252,0.540844,hit,1764581121.278252,-1.0,exhalation,P005
100,left,0.05,2025-12-01 09:25:25.737408,2025-12-01 09:25:26.305539,0.568132,hit,1764581126.3055391,-1.0,exhalation,P005
101,left,0.1,2025-12-01 09:25:32.737408,2025-12-01 09:25:33.374544,0.637136,hit,1764581133.374544,-1.0,exhalation,P005
102,left,0.1,2025-12-01 09:25:34.737408,2025-12-01 09:25:35.342952,0.605544,hit,1764581135.342952,-1.0,exhalation,P005
103,right,0.15,2025-12-01 09:25:41.737408,2025-12-01 09:25:42.300763,0.563356,hit,1764581142.300763,-1.0,exhalation,P005
104,right,0.1,2025-12-01 09:25:48.737408,2025-12-01 09:25:49.399469,0.662061,hit,1764581149.3994691,1.0,inhalation,P005
105,right,0.1,2025-12-01 09:25:55.737408,2025-12-01 09:25:56.353176,0.615769,hit,1764581156.353176,-1.0,exhalation,P005
106,right,0.1,2025-12-01 09:26:02.737408,2025-12-01 09:26:03.304796,0.567389,hit,1764581163.304796,-1.0,exhalation,P005
107,right,0.05,2025-12-01 09:26:04.737408,2025-12-01 09:26:05.349291,0.611884,hit,1764581165.349291,-1.0,exhalation,P005
108,left,0.05,2025-12-01 09:26:11.737408,2025-12-01 09:26:12.399838,0.66243,hit,1764581172.399838,-1.0,exhalation,P005
109,left,0.15,2025-12-01 09:26:15.737408,2025-12-01 09:26:16.330776,0.593368,hit,1764581176.330776,1.0,inhalation,P005
110,left,0.15,2025-12-01 09:26:17.737408,2025-12-01 09:26:18.397282,0.659875,hit,1764581178.397282,-1.0,exhalation,P005
111,left,0.15,2025-12-01 09:26:22.737408,2025-12-01 09:26:23.325358,0.58795,hit,1764581183.3253582,-1.0,exhalation,P005
112,left,0.05,2025-12-01 09:26:26.737408,2025-12-01 09:26:27.301744,0.564336,hit,1764581187.3017442,-1.0,exhalation,P005
113,left,0.05,2025-12-01 09:26:28.737408,2025-12-01 09:26:29.316278,0.578871,hit,1764581189.316278,-1.0,exhalation,P005
114,left,0.15,2025-12-01 09:26:32.737408,2025-12-01 09:26:33.353918,0.61651,hit,1764581193.3539178,1.0,inhalation,P005
115,left,0.05,2025-12-01 09:26:37.737408,2025-12-01 09:26:38.335694,0.598287,hit,1764581198.335694,-1.0,exhalation,P005
116,right,0.05,2025-12-01 09:26:44.737408,2025-12-01 09:26:45.356623,0.619215,hit,1764581205.3566232,1.0,inhalation,P005
117,right,0.05,2025-12-01 09:26:51.737408,2025-12-01 09:26:52.339014,0.601606,hit,1764581212.3390138,-1.0,exhalation,P005
118,right,0.05,2025-12-01 09:26:53.737408,2025-12-01 09:26:54.278764,0.541356,hit,1764581214.278764,1.0,inhalation,P005
119,left,0.05,2025-12-01 09:27:00.737408,2025-12-01 09:27:01.345785,0.608377,hit,1764581221.3457851,-1.0,exhalation,P005
120,left,0.1,2025-12-01 09:27:07.737408,2025-12-01 09:27:08.398863,0.661455,hit,1764581228.398863,-1.0,exhalation,P005
121,right,0.1,2025-12-01 09:27:09.737408,2025-12-01 09:27:10.320371,0.582964,hit,1764581230.320371,-1.0,exhalation,P005
122,left,0.05,2025-12-01 09:27:16.737408,2025-12-01 09:27:17.417711,0.680304,hit,1764581237.417711,-1.0,exhalation,P005
123,left,0.1,2025-12-01 09:27:18.737408,2025-12-01 09:27:19.329605,0.592198,hit,1764581239.329605,-1.0,exhalation,P005
124,right,0.1,2025-12-01 09:27:25.737408,2025-12-01 09:27:26.486055,0.748647,hit,1764581246.486055,-1.0,exhalation,P005
125,left,0.1,2025-12-01 09:27:29.737408,2025-12-01 09:27:30.298250,0.560843,hit,1764581250.29825,-1.0,exhalation,P005
126,right,0.1,2025-12-01 09:27:31.737408,2025-12-01 09:27:32.344532,0.607124,hit,1764581252.344532,1.0,inhalation,P005
