trial,side,volume,scheduled_timestamp_utc,response_timestamp_utc,RT_seconds,resp_status,response_ts_sec,resp_phase_deg,resp_phase_label,participant_id
1,right,0.15,2025-11-30 11:41:05.011329,2025-11-30 11:41:05.630868,0.61954,hit,1764502865.630868,232.6464625872636,exhalation,P001
2,right,0.05,2025-11-30 11:41:09.011329,2025-11-30 11:41:09.505422,0.494093,hit,1764502869.505422,205.8900441049657,exhalation,P001
3,left,0.1,2025-11-30 11:41:13.011329,2025-11-30 11:41:13.521630,0.510301,hit,1764502873.52163,183.2192728949032,exhalation,P001
4,right,0.15,2025-11-30 11:41:15.011329,2025-11-30 11:41:15.514774,0.503445,hit,1764502875.514774,352.0269546164526,inhalation,P001
5,right,0.05,2025-11-30 11:41:22.011329,2025-11-30 11:41:22.477177,0.465848,hit,1764502882.4771771,166.62605349229932,exhalation,P001
6,right,0.1,2025-11-30 11:41:27.011329,2025-11-30 11:41:27.528742,0.517413,hit,1764502887.5287418,166.91673209397788,exhalation,P001
7,left,0.15,2025-11-30 11:41:31.011329,2025-11-30 11:41:31.436437,0.425108,hit,1764502891.436437,147.23987533473553,exhalation,P001
8,right,0.05,2025-11-30 11:41:38.011329,2025-11-30 11:41:38.627026,0.615697,hit,1764502898.6270258,42.57851821270185,inhalation,P001
9,right,0.1,2025-11-30 11:41:45.011329,2025-11-30 11:41:45.550086,0.538758,hit,1764502905.5500858,22.938747491306685,inhalation,P001
10,left,0.1,2025-11-30 11:41:50.011329,2025-11-30 11:41:50.451969,0.44064,hit,1764502910.451969,198.94496165008167,exhalation,P001
11,left,0.1,2025-11-30 11:41:54.011329,2025-11-30 11:41:54.491889,0.480561,hit,1764502914.491889,38.67840187432182,inhalation,P001
12,left,0.15,2025-11-30 11:41:58.011329,2025-11-30 11:41:58.433470,0.422142,hit,1764502918.43347,215.86670290715503,exhalation,P001
13,left,0.15,2025-11-30 11:42:05.011329,2025-11-30 11:42:05.506657,0.495328,hit,1764502925.5066571,216.64019040653864,exhalation,P001
14,right,0.15,2025-11-30 11:42:10.011329,2025-11-30 11:42:10.561870,0.550541,hit,1764502930.56187,262.6890252717455,exhalation,P001
15,left,0.1,2025-11-30 11:42:17.011329,2025-11-30 11:42:17.433449,0.42212,hit,1764502937.433449,246.0654456602569,exhalation,P001
16,left,0.05,2025-11-30 11:42:22.011329,2025-11-30 11:42:22.438696,0.427367,hit,1764502942.438696,324.2670307594077,inhalation,P001
17,left,0.1,2025-11-30 11:42:24.011329,2025-11-30 11:42:24.564115,0.552786,hit,1764502944.564115,115.96159139383272,exhalation,P001
18,right,0.15,2025-11-30 11:42:29.011329,2025-11-30 11:42:29.556986,0.545657,hit,1764502949.556986,99.39027027036236,exhalation,P001
19,left,0.1,2025-11-30 11:42:33.011329,2025-11-30 11:42:33.509493,0.498164,hit,1764502953.5094929,224.3567336425388,exhalation,P001
20,right,0.1,2025-11-30 11:42:38.011329,2025-11-30 11:42:38.463262,0.451934,hit,1764502958.4632618,194.2173262843479,exhalation,P001
21,right,0.1,2025-11-30 11:42:40.011329,2025-11-30 11:42:40.441934,0.430605,hit,1764502960.441934,280.951375457986,inhalation,P001
22,right,0.15,2025-11-30 11:42:42.011329,2025-11-30 11:42:42.413430,0.402101,hit,1764502962.41343,179.02666586784545,exhalation,P001
23,left,0.15,2025-11-30 11:42:44.011329,2025-11-30 11:42:44.626452,0.615124,hit,1764502964.626452,61.00781710166007,inhalation,P001
24,right,0.05,2025-11-30 11:42:51.011329,2025-11-30 11:42:51.434902,0.423574,hit,1764502971.434902,199.77388836063204,exhalation,P001
25,left,0.15,2025-11-30 11:42:56.011329,2025-11-30 11:42:56.589827,0.578498,hit,1764502976.589827,157.31646333024275,exhalation,P001
26,left,0.1,2025-11-30 11:43:00.011329,2025-11-30 11:43:00.459786,0.448457,hit,1764502980.459786,336.4794818259771,inhalation,P001
27,right,0.15,2025-11-30 11:43:02.011329,2025-11-30 11:43:02.528395,0.517066,hit,1764502982.528395,117.06941278225136,exhalation,P001
28,right,0.15,2025-11-30 11:43:04.011329,2025-11-30 11:43:04.467628,0.456299,hit,1764502984.467628,181.352628587374,exhalation,P001
29,left,0.05,2025-11-30 11:43:08.011329,2025-11-30 11:43:08.518165,0.506836,hit,1764502988.5181649,3.905205745100545,inhalation,P001
30,right,0.05,2025-11-30 11:43:15.011329,2025-11-30 11:43:15.519354,0.508025,hit,1764502995.519354,272.4873459847368,inhalation,P001
31,left,0.05,2025-11-30 11:43:22.011329,2025-11-30 11:43:22.454716,0.443387,hit,1764503002.454716,162.22267299034138,exhalation,P001
32,right,0.05,2025-11-30 11:43:29.011329,2025-11-30 11:43:29.460341,0.449012,hit,1764503009.460341,275.22094105851176,inhalation,P001
33,right,0.05,2025-11-30 11:43:31.011329,2025-11-30 11:43:31.643474,0.632145,hit,1764503011.643474,110.60572403805024,exhalation,P001
34,right,0.15,2025-11-30 11:43:36.011329,2025-11-30 11:43:36.561552,0.550223,hit,1764503016.5615518,100.10058217431568,exhalation,P001
35,right,0.05,2025-11-30 11:43:38.011329,2025-11-30 11:43:38.546963,0.535634,hit,1764503018.546963,161.6950065783399,exhalation,P001
36,right,0.15,2025-11-30 11:43:42.011329,2025-11-30 11:43:42.499907,0.488578,hit,1764503022.499907,345.1276411899087,inhalation,P001
37,left,0.1,2025-11-30 11:43:47.011329,2025-11-30 11:43:47.470496,0.459168,hit,1764503027.470496,250.8622353556478,exhalation,P001
38,left,0.1,2025-11-30 11:43:51.011329,2025-11-30 11:43:51.522294,0.510965,hit,1764503031.522294,126.36613929058176,exhalation,P001
39,right,0.15,2025-11-30 11:43:58.011329,2025-11-30 11:43:58.594103,0.582774,hit,1764503038.594103,92.69168174222068,exhalation,P001
40,right,0.05,2025-11-30 11:44:05.011329,2025-11-30 11:44:05.738065,0.726737,hit,1764503045.738065,135.0544774240181,exhalation,P001
41,left,0.15,2025-11-30 11:44:09.011329,2025-11-30 11:44:09.765944,0.754615,hit,1764503049.765944,236.82154141839607,exhalation,P001
42,left,0.05,2025-11-30 11:44:14.011329,2025-11-30 11:44:14.654079,0.64275,hit,1764503054.654079,183.97381752854812,exhalation,P001
43,left,0.1,2025-11-30 11:44:19.011329,2025-11-30 11:44:19.580725,0.569397,hit,1764503059.580725,232.23183406574017,exhalation,P001
44,left,0.15,2025-11-30 11:44:26.011329,2025-11-30 11:44:26.575305,0.563977,hit,1764503066.575305,173.68966368087894,exhalation,P001
45,left,0.1,2025-11-30 11:44:28.011329,2025-11-30 11:44:28.675146,0.663818,hit,1764503068.675146,279.3215848849081,inhalation,P001
46,right,0.1,2025-11-30 11:44:33.011329,2025-11-30 11:44:33.643529,0.632201,hit,1764503073.643529,265.9257215988571,exhalation,P001
47,left,0.1,2025-11-30 11:44:35.011329,2025-11-30 11:44:35.689501,0.678172,hit,1764503075.689501,114.75477980577924,exhalation,P001
48,left,0.05,2025-11-30 11:44:40.011329,2025-11-30 11:44:40.562959,0.55163,hit,1764503080.5629592,20.664126913876032,inhalation,P001
49,right,0.1,2025-11-30 11:44:42.011329,2025-11-30 11:44:42.577032,0.565703,hit,1764503082.577032,137.04214446322737,exhalation,P001
50,right,0.1,2025-11-30 11:44:49.011329,2025-11-30 11:44:49.612709,0.60138,hit,1764503089.612709,47.003758753902616,inhalation,P001
51,right,0.05,2025-11-30 11:44:56.011329,2025-11-30 11:44:56.638655,0.627326,hit,1764503096.638655,346.57991458345134,inhalation,P001
52,right,0.05,2025-11-30 11:45:00.011329,2025-11-30 11:45:00.614948,0.603619,hit,1764503100.614948,258.3845924320636,exhalation,P001
53,left,0.15,2025-11-30 11:45:04.011329,2025-11-30 11:45:04.563581,0.552252,hit,1764503104.563581,174.65262422064677,exhalation,P001
54,left,0.05,2025-11-30 11:45:09.011329,2025-11-30 11:45:09.689994,0.678665,hit,1764503109.689994,199.74586791725417,exhalation,P001
55,right,0.05,2025-11-30 11:45:11.011329,2025-11-30 11:45:11.689679,0.67835,hit,1764503111.6896791,8.110706925253396,inhalation,P001
56,right,0.15,2025-11-30 11:45:16.011329,2025-11-30 11:45:16.915458,0.904129,hit,1764503116.915458,213.0293296742332,exhalation,P001
57,right,0.1,2025-11-30 11:45:18.011329,2025-11-30 11:45:18.856806,0.845477,hit,1764503118.8568058,282.4647828558391,inhalation,P001
58,right,0.05,2025-11-30 11:45:23.011329,2025-11-30 11:45:23.702594,0.691266,hit,1764503123.702594,12.286578021204376,inhalation,P001
59,right,0.05,2025-11-30 11:45:27.011329,2025-11-30 11:45:27.523567,0.512239,hit,1764503127.5235672,98.30005534450125,exhalation,P001
60,right,0.05,2025-11-30 11:45:32.011329,2025-11-30 11:45:32.565587,0.554258,hit,1764503132.565587,331.66256391007914,inhalation,P001
61,right,0.1,2025-11-30 11:45:34.011329,2025-11-30 11:45:34.620915,0.609586,hit,1764503134.620915,125.29742686716712,exhalation,P001
62,left,0.15,2025-11-30 11:45:39.011329,2025-11-30 11:45:39.589884,0.578556,hit,1764503139.5898838,151.0719117121983,exhalation,P001
63,left,0.1,2025-11-30 11:45:41.011329,2025-11-30 11:45:41.593970,0.582641,hit,1764503141.5939698,209.8158429915681,exhalation,P001
64,right,0.1,2025-11-30 11:45:46.011329,2025-11-30 11:45:46.577610,0.566281,hit,1764503146.57761,200.8189955319015,exhalation,P001
65,left,0.15,2025-11-30 11:45:51.011329,2025-11-30 11:45:51.666488,0.65516,hit,1764503151.6664882,183.5048523224101,exhalation,P001
66,left,0.15,2025-11-30 11:45:58.011329,2025-11-30 11:45:58.668674,0.657345,hit,1764503158.668674,185.9756336308044,exhalation,P001
67,right,0.05,2025-11-30 11:46:03.011329,2025-11-30 11:46:03.600425,0.589096,hit,1764503163.600425,174.38762887721515,exhalation,P001
68,right,0.1,2025-11-30 11:46:05.011329,2025-11-30 11:46:05.598006,0.586677,hit,1764503165.598006,324.0494192145769,inhalation,P001
69,right,0.1,2025-11-30 11:46:12.011329,2025-11-30 11:46:12.539858,0.52853,hit,1764503172.539858,349.0618604623263,inhalation,P001
70,left,0.1,2025-11-30 11:46:14.011329,2025-11-30 11:46:14.627558,0.616229,hit,1764503174.627558,97.54802436637095,exhalation,P001
71,left,0.15,2025-11-30 11:46:16.011329,2025-11-30 11:46:16.674555,0.663226,hit,1764503176.6745548,148.892239272986,exhalation,P001
72,right,0.15,2025-11-30 11:46:21.011329,2025-11-30 11:46:21.557759,0.54643,hit,1764503181.557759,277.7512139793712,inhalation,P001
73,left,0.15,2025-11-30 11:46:28.011329,2025-11-30 11:46:28.602685,0.591356,hit,1764503188.602685,104.29687827716334,exhalation,P001
74,right,0.15,2025-11-30 11:46:30.011329,2025-11-30 11:46:30.638156,0.626828,hit,1764503190.638156,196.20317102657185,exhalation,P001
75,left,0.15,2025-11-30 11:46:32.011329,2025-11-30 11:46:32.603222,0.591893,hit,1764503192.603222,309.1809891675947,inhalation,P001
76,left,0.05,2025-11-30 11:46:34.011329,2025-11-30 11:46:34.582799,0.57147,hit,1764503194.5827992,121.57498496438934,exhalation,P001
77,left,0.15,2025-11-30 11:46:41.011329,2025-11-30 11:46:41.667017,0.655689,hit,1764503201.667017,181.96552829887943,exhalation,P001
78,right,0.15,2025-11-30 11:46:48.011329,2025-11-30 11:46:48.661121,0.649793,hit,1764503208.6611211,203.26011170149275,exhalation,P001
79,right,0.15,2025-11-30 11:46:53.011329,2025-11-30 11:46:53.736362,0.725034,hit,1764503213.736362,202.03083307000605,exhalation,P001
80,left,0.05,2025-11-30 11:46:57.011329,2025-11-30 11:46:57.593387,0.582058,hit,1764503217.5933871,142.0730930589978,exhalation,P001
81,left,0.15,2025-11-30 11:47:04.011329,2025-11-30 11:47:04.676935,0.665606,hit,1764503224.676935,173.51841743771251,exhalation,P001
82,left,0.05,2025-11-30 11:47:08.011329,2025-11-30 11:47:08.580951,0.569623,hit,1764503228.580951,18.103978698778576,inhalation,P001
83,right,0.1,2025-11-30 11:47:15.011329,2025-11-30 11:47:15.596619,0.585291,hit,1764503235.596619,128.13126827448775,exhalation,P001
84,left,0.1,2025-11-30 11:47:20.011329,2025-11-30 11:47:20.647478,0.63615,hit,1764503240.647478,8.332396866292981,inhalation,P001
85,right,0.15,2025-11-30 11:47:24.011329,2025-11-30 11:47:24.584165,0.572837,hit,1764503244.584165,181.71805192157592,exhalation,P001
86,left,0.05,2025-11-30 11:47:31.011329,2025-11-30 11:47:31.600861,0.589533,hit,1764503251.6008608,153.76145374829036,exhalation,P001
87,left,0.05,2025-11-30 11:47:36.011329,2025-11-30 11:47:36.696767,0.685438,hit,1764503256.696767,8.64237072276859,inhalation,P001
88,right,0.1,2025-11-30 11:47:38.011329,2025-11-30 11:47:38.835441,0.824112,hit,1764503258.8354409,204.10706845298145,exhalation,P001
89,right,0.15,2025-11-30 11:47:45.011329,2025-11-30 11:47:45.674364,0.663035,hit,1764503265.674364,31.819494222783987,inhalation,P001
90,right,0.1,2025-11-30 11:47:47.011329,2025-11-30 11:47:47.659646,0.648317,hit,1764503267.659646,276.19278528587665,inhalation,P001
91,left,0.05,2025-11-30 11:47:49.011329,2025-11-30 11:47:49.635367,0.624038,hit,1764503269.635367,19.50104650770254,inhalation,P001
92,right,0.15,2025-11-30 11:47:54.011329,2025-11-30 11:47:54.557214,0.545886,hit,1764503274.557214,43.61780893892672,inhalation,P001
93,left,0.05,2025-11-30 11:48:01.011329,2025-11-30 11:48:01.614760,0.603431,hit,1764503281.61476,125.28366698522878,exhalation,P001
94,right,0.05,2025-11-30 11:48:05.011329,2025-11-30 11:48:05.617230,0.605901,hit,1764503285.6172302,14.321533310223458,inhalation,P001
95,right,0.15,2025-11-30 11:48:07.011329,2025-11-30 11:48:07.597975,0.586646,hit,1764503287.597975,192.7529317218941,exhalation,P001
96,right,0.15,2025-11-30 11:48:09.011329,2025-11-30 11:48:09.501258,0.489929,hit,1764503289.501258,21.376818104642325,inhalation,P001
97,left,0.05,2025-11-30 11:48:14.011329,2025-11-30 11:48:14.604419,0.59309,hit,1764503294.604419,359.355334066464,inhalation,P001
98,left,0.15,2025-11-30 11:48:18.011329,2025-11-30 11:48:18.531907,0.520579,hit,1764503298.531907,163.46325893025505,exhalation,P001
99,left,0.1,2025-11-30 11:48:20.011329,2025-11-30 11:48:20.528665,0.517336,hit,1764503300.528665,218.08392037011603,exhalation,P001
100,left,0.05,2025-11-30 11:48:25.011329,2025-11-30 11:48:25.624352,0.613023,hit,1764503305.624352,138.49792859593106,exhalation,P001
101,left,0.1,2025-11-30 11:48:32.011329,2025-11-30 11:48:32.600928,0.589599,hit,1764503312.600928,191.43748409217707,exhalation,P001
102,left,0.1,2025-11-30 11:48:34.011329,2025-11-30 11:48:34.622006,0.610678,hit,1764503314.622006,321.9411145886992,inhalation,P001
103,right,0.15,2025-11-30 11:48:41.011329,2025-11-30 11:48:41.649141,0.637812,hit,1764503321.649141,110.09077937828354,exhalation,P001
104,right,0.1,2025-11-30 11:48:48.011329,2025-11-30 11:48:48.610454,0.599125,hit,1764503328.610454,164.0060347935309,exhalation,P001
105,right,0.1,2025-11-30 11:48:55.011329,2025-11-30 11:48:55.753413,0.742084,hit,1764503335.7534132,245.1558646479897,exhalation,P001
106,right,0.1,2025-11-30 11:49:02.011329,2025-11-30 11:49:02.542088,0.530759,hit,1764503342.542088,15.642539937909532,inhalation,P001
107,right,0.05,2025-11-30 11:49:04.011329,2025-11-30 11:49:04.595570,0.584241,hit,1764503344.5955698,128.26740724902297,exhalation,P001
108,left,0.05,2025-11-30 11:49:11.011329,2025-11-30 11:49:11.530335,0.519006,hit,1764503351.530335,166.894717739575,exhalation,P001
109,left,0.15,2025-11-30 11:49:15.011329,2025-11-30 11:49:15.541369,0.530041,hit,1764503355.5413692,128.0889067628407,exhalation,P001
110,left,0.15,2025-11-30 11:49:17.011329,2025-11-30 11:49:17.575258,0.56393,hit,1764503357.575258,222.6007823527608,exhalation,P001
111,left,0.15,2025-11-30 11:49:22.011329,2025-11-30 11:49:22.556540,0.545211,hit,1764503362.55654,192.9566256923997,exhalation,P001
112,left,0.05,2025-11-30 11:49:26.011329,2025-11-30 11:49:26.566610,0.555281,hit,1764503366.56661,4.475694882315338,inhalation,P001
113,left,0.05,2025-11-30 11:49:28.011329,2025-11-30 11:49:28.569714,0.558386,hit,1764503368.5697138,90.0,inhalation,P001
114,left,0.15,2025-11-30 11:49:32.011329,2025-11-30 11:49:32.552420,0.541091,hit,1764503372.55242,15.012309966210978,inhalation,P001
115,left,0.05,2025-11-30 11:49:37.011329,2025-11-30 11:49:37.629262,0.617934,hit,1764503377.629262,127.5698928043736,exhalation,P001
116,right,0.05,2025-11-30 11:49:44.011329,2025-11-30 11:49:44.686018,0.674689,hit,1764503384.686018,259.47424207311644,exhalation,P001
117,right,0.05,2025-11-30 11:49:51.011329,2025-11-30 11:49:51.573719,0.56239,hit,1764503391.573719,270.0,inhalation,P001
118,right,0.05,2025-11-30 11:49:53.011329,2025-11-30 11:49:53.602973,0.591644,hit,1764503393.602973,101.84263360098927,exhalation,P001
119,left,0.05,2025-11-30 11:50:00.011329,2025-11-30 11:50:00.611138,0.599809,hit,1764503400.611138,174.988205659333,exhalation,P001
120,left,0.1,2025-11-30 11:50:07.011329,2025-11-30 11:50:07.730297,0.718968,hit,1764503407.730297,5.006212796040018,inhalation,P001
121,right,0.1,2025-11-30 11:50:09.011329,2025-11-30 11:50:09.587238,0.575909,hit,1764503409.5872378,125.98855691419624,exhalation,P001
122,left,0.05,2025-11-30 11:50:16.011329,2025-11-30 11:50:16.584495,0.573166,hit,1764503416.584495,188.7194356372096,exhalation,P001
123,left,0.1,2025-11-30 11:50:18.011329,2025-11-30 11:50:18.670024,0.658695,hit,1764503418.670024,260.2512063479568,exhalation,P001
124,right,0.1,2025-11-30 11:50:25.011329,2025-11-30 11:50:25.619108,0.607779,hit,1764503425.6191082,17.880874920819338,inhalation,P001
125,left,0.1,2025-11-30 11:50:29.011329,2025-11-30 11:50:29.597209,0.58588,hit,1764503429.597209,333.3663295767089,inhalation,P001
126,right,0.1,2025-11-30 11:50:31.011329,2025-11-30 11:50:31.819333,0.808004,hit,1764503431.819333,96.36699487703386,exhalation,P001
1,right,0.15,2025-11-30 11:58:59.676121,2025-11-30 11:59:00.271226,0.595105,hit,1764503940.2712262,240.73597514651016,exhalation,P002
2,right,0.05,2025-11-30 11:59:03.676121,2025-11-30 11:59:04.190090,0.513968,hit,1764503944.19009,122.86898190192848,exhalation,P002
3,left,0.1,2025-11-30 11:59:07.676121,2025-11-30 11:59:08.453166,0.777044,hit,1764503948.453166,344.6280144728672,inhalation,P002
4,right,0.15,2025-11-30 11:59:09.676121,2025-11-30 11:59:10.288466,0.612345,hit,1764503950.288466,95.97498528746485,exhalation,P002
5,right,0.05,2025-11-30 11:59:16.676121,2025-11-30 11:59:17.256784,0.580662,hit,1764503957.256784,212.86712405914585,exhalation,P002
6,right,0.1,2025-11-30 11:59:21.676121,2025-11-30 11:59:22.365959,0.689838,hit,1764503962.365959,234.05726087925936,exhalation,P002
7,left,0.15,2025-11-30 11:59:25.676121,2025-11-30 11:59:26.136592,0.460471,hit,1764503966.136592,143.28671920154505,exhalation,P002
8,right,0.05,2025-11-30 11:59:32.676121,2025-11-30 11:59:33.128891,0.45277,hit,1764503973.128891,249.53608081852977,exhalation,P002
9,right,0.1,2025-11-30 11:59:39.676121,2025-11-30 11:59:40.175728,0.499607,hit,1764503980.175728,80.2659620755536,inhalation,P002
10,left,0.1,2025-11-30 11:59:44.676121,2025-11-30 11:59:45.140162,0.46404,hit,1764503985.140162,96.26648798299276,exhalation,P002
11,left,0.1,2025-11-30 11:59:48.676121,2025-11-30 11:59:49.086743,0.410621,hit,1764503989.086743,71.68766733832013,inhalation,P002
12,left,0.15,2025-11-30 11:59:52.676121,2025-11-30 11:59:53.088592,0.41247,hit,1764503993.0885918,72.7093961065375,inhalation,P002
13,left,0.15,2025-11-30 11:59:59.676121,2025-11-30 12:00:00.181940,0.505819,hit,1764504000.18194,245.35609066499995,exhalation,P002
14,right,0.15,2025-11-30 12:00:04.676121,2025-11-30 12:00:05.141206,0.465085,hit,1764504005.141206,251.11245373516127,exhalation,P002
15,left,0.1,2025-11-30 12:00:11.676121,2025-11-30 12:00:12.153673,0.477551,hit,1764504012.153673,71.5847239260898,inhalation,P002
16,left,0.05,2025-11-30 12:00:16.676121,2025-11-30 12:00:17.188755,0.512633,hit,1764504017.188755,162.60649482317962,exhalation,P002
17,left,0.1,2025-11-30 12:00:18.676121,2025-11-30 12:00:19.167886,0.491764,hit,1764504019.167886,308.32342576323526,inhalation,P002
18,right,0.15,2025-11-30 12:00:23.676121,2025-11-30 12:00:24.172826,0.496704,hit,1764504024.172826,320.49543549890427,inhalation,P002
19,left,0.1,2025-11-30 12:00:27.676121,2025-11-30 12:00:28.046402,0.370281,hit,1764504028.046402,173.9869482002407,exhalation,P002
20,right,0.1,2025-11-30 12:00:32.676121,2025-11-30 12:00:33.082745,0.406623,hit,1764504033.082745,117.5901404952927,exhalation,P002
21,right,0.1,2025-11-30 12:00:34.676121,2025-11-30 12:00:35.132186,0.456065,hit,1764504035.1321862,270.0,inhalation,P002
22,right,0.15,2025-11-30 12:00:36.676121,2025-11-30 12:00:37.058637,0.382516,hit,1764504037.0586371,77.08660742946546,inhalation,P002
23,left,0.15,2025-11-30 12:00:38.676121,2025-11-30 12:00:39.080846,0.404725,hit,1764504039.080846,260.91893983410614,exhalation,P002
24,right,0.05,2025-11-30 12:00:45.676121,2025-11-30 12:00:46.268926,0.592805,hit,1764504046.268926,146.88509287753337,exhalation,P002
25,left,0.15,2025-11-30 12:00:50.676121,2025-11-30 12:00:51.151711,0.47559,hit,1764504051.151711,158.66810628397326,exhalation,P002
26,left,0.1,2025-11-30 12:00:54.676121,2025-11-30 12:00:55.131854,0.455732,hit,1764504055.131854,139.15848700881014,exhalation,P002
27,right,0.15,2025-11-30 12:00:56.676121,2025-11-30 12:00:57.162061,0.48594,hit,1764504057.162061,306.3891994282712,inhalation,P002
28,right,0.15,2025-11-30 12:00:58.676121,2025-11-30 12:00:59.098991,0.42287,hit,1764504059.0989912,124.60475951217283,exhalation,P002
29,left,0.05,2025-11-30 12:01:02.676121,2025-11-30 12:01:03.128125,0.452003,hit,1764504063.128125,131.61698561652148,exhalation,P002
30,right,0.05,2025-11-30 12:01:09.676121,2025-11-30 12:01:10.124022,0.447901,hit,1764504070.124022,42.56657417424486,inhalation,P002
31,left,0.05,2025-11-30 12:01:16.676121,2025-11-30 12:01:17.256631,0.580509,hit,1764504077.2566311,327.5382388472931,inhalation,P002
32,right,0.05,2025-11-30 12:01:23.676121,2025-11-30 12:01:24.203043,0.526922,hit,1764504084.203043,113.56671932105677,exhalation,P002
33,right,0.05,2025-11-30 12:01:25.676121,2025-11-30 12:01:26.163703,0.487582,hit,1764504086.163703,278.505084530077,inhalation,P002
34,right,0.15,2025-11-30 12:01:30.676121,2025-11-30 12:01:31.095321,0.419199,hit,1764504091.0953212,350.0621528271691,inhalation,P002
35,right,0.05,2025-11-30 12:01:32.676121,2025-11-30 12:01:33.101780,0.425659,hit,1764504093.10178,139.81922260859463,exhalation,P002
36,right,0.15,2025-11-30 12:01:36.676121,2025-11-30 12:01:37.086775,0.410653,hit,1764504097.086775,115.0263123522457,exhalation,P002
37,left,0.1,2025-11-30 12:01:41.676121,2025-11-30 12:01:42.112059,0.435938,hit,1764504102.1120589,179.91981893604236,exhalation,P002
38,left,0.1,2025-11-30 12:01:45.676121,2025-11-30 12:01:46.122788,0.446666,hit,1764504106.1227882,153.12999176692182,exhalation,P002
39,right,0.15,2025-11-30 12:01:52.676121,2025-11-30 12:01:53.307678,0.631557,hit,1764504113.307678,299.56933361784724,inhalation,P002
40,right,0.05,2025-11-30 12:01:59.676121,2025-11-30 12:02:00.215481,0.53936,hit,1764504120.215481,118.97140646396666,exhalation,P002
41,left,0.15,2025-11-30 12:02:03.676121,2025-11-30 12:02:04.290367,0.614246,hit,1764504124.290367,98.7807264136434,exhalation,P002
42,left,0.05,2025-11-30 12:02:08.676121,2025-11-30 12:02:09.240399,0.564278,hit,1764504129.2403991,165.84116235663816,exhalation,P002
43,left,0.1,2025-11-30 12:02:13.676121,2025-11-30 12:02:14.222984,0.546862,hit,1764504134.2229838,242.0148559351627,exhalation,P002
44,left,0.15,2025-11-30 12:02:20.676121,2025-11-30 12:02:21.278432,0.602311,hit,1764504141.278432,222.0687417397452,exhalation,P002
45,left,0.1,2025-11-30 12:02:22.676121,2025-11-30 12:02:23.209700,0.533578,hit,1764504143.2097,63.19588081786151,inhalation,P002
46,right,0.1,2025-11-30 12:02:27.676121,2025-11-30 12:02:28.275378,0.599256,hit,1764504148.275378,233.9516509479191,exhalation,P002
47,left,0.1,2025-11-30 12:02:29.676121,2025-11-30 12:02:30.172009,0.495888,hit,1764504150.172009,84.75373920721728,inhalation,P002
48,left,0.05,2025-11-30 12:02:34.676121,2025-11-30 12:02:35.219455,0.543333,hit,1764504155.219455,168.52897075000706,exhalation,P002
49,right,0.1,2025-11-30 12:02:36.676121,2025-11-30 12:02:37.216910,0.540788,hit,1764504157.21691,319.3908611864953,inhalation,P002
50,right,0.1,2025-11-30 12:02:43.676121,2025-11-30 12:02:44.245394,0.569272,hit,1764504164.245394,244.45917529685389,exhalation,P002
51,right,0.05,2025-11-30 12:02:50.676121,2025-11-30 12:02:51.152583,0.476461,hit,1764504171.152583,108.63787305866649,exhalation,P002
52,right,0.05,2025-11-30 12:02:54.676121,2025-11-30 12:02:55.193283,0.517162,hit,1764504175.193283,329.17796083719094,inhalation,P002
53,left,0.15,2025-11-30 12:02:58.676121,2025-11-30 12:02:59.173556,0.497434,hit,1764504179.173556,249.61568780837612,exhalation,P002
54,left,0.05,2025-11-30 12:03:03.676121,2025-11-30 12:03:04.203293,0.527172,hit,1764504184.2032928,201.15804149906847,exhalation,P002
55,right,0.05,2025-11-30 12:03:05.676121,2025-11-30 12:03:06.185499,0.509378,hit,1764504186.185499,335.4549514399082,inhalation,P002
56,right,0.15,2025-11-30 12:03:10.676121,2025-11-30 12:03:11.152119,0.475998,hit,1764504191.152119,285.19512709917984,inhalation,P002
57,right,0.1,2025-11-30 12:03:12.676121,2025-11-30 12:03:13.207958,0.531836,hit,1764504193.207958,82.40283548649563,inhalation,P002
58,right,0.05,2025-11-30 12:03:17.676121,2025-11-30 12:03:18.191144,0.515022,hit,1764504198.191144,75.04581107586802,inhalation,P002
59,right,0.05,2025-11-30 12:03:21.676121,2025-11-30 12:03:22.211191,0.535069,hit,1764504202.211191,7.682615316492615,inhalation,P002
60,right,0.05,2025-11-30 12:03:26.676121,2025-11-30 12:03:27.218755,0.542634,hit,1764504207.218755,33.80384611552495,inhalation,P002
61,right,0.1,2025-11-30 12:03:28.676121,2025-11-30 12:03:29.381257,0.705136,hit,1764504209.381257,186.23382957024583,exhalation,P002
62,left,0.15,2025-11-30 12:03:33.676121,2025-11-30 12:03:34.269990,0.593869,hit,1764504214.26999,216.05366982184108,exhalation,P002
63,left,0.1,2025-11-30 12:03:35.676121,2025-11-30 12:03:36.156337,0.480216,hit,1764504216.1563368,6.442799289822972,inhalation,P002
64,right,0.1,2025-11-30 12:03:40.676121,2025-11-30 12:03:41.266831,0.590709,hit,1764504221.2668312,78.94072624329777,inhalation,P002
65,left,0.15,2025-11-30 12:03:45.676121,2025-11-30 12:03:46.318513,0.642391,hit,1764504226.318513,168.06290670750354,exhalation,P002
66,left,0.15,2025-11-30 12:03:52.676121,2025-11-30 12:03:53.255736,0.579614,hit,1764504233.255736,7.998970960119209,inhalation,P002
67,right,0.05,2025-11-30 12:03:57.676121,2025-11-30 12:03:58.212633,0.536512,hit,1764504238.2126331,5.862899895794556,inhalation,P002
68,right,0.1,2025-11-30 12:03:59.676121,2025-11-30 12:04:00.236466,0.560344,hit,1764504240.236466,144.6694740499399,exhalation,P002
69,right,0.1,2025-11-30 12:04:06.676121,2025-11-30 12:04:07.286351,0.61023,hit,1764504247.2863512,325.1332000627052,inhalation,P002
70,left,0.1,2025-11-30 12:04:08.676121,2025-11-30 12:04:09.242759,0.566637,hit,1764504249.242759,147.68049407431766,exhalation,P002
71,left,0.15,2025-11-30 12:04:10.676121,2025-11-30 12:04:11.198507,0.522386,hit,1764504251.198507,331.96793106698226,inhalation,P002
72,right,0.15,2025-11-30 12:04:15.676121,2025-11-30 12:04:16.220493,0.544371,hit,1764504256.220493,99.99838389261106,exhalation,P002
73,left,0.15,2025-11-30 12:04:22.676121,2025-11-30 12:04:23.273612,0.597491,hit,1764504263.273612,16.243608198226582,inhalation,P002
74,right,0.15,2025-11-30 12:04:24.676121,2025-11-30 12:04:25.188951,0.512829,hit,1764504265.188951,181.50876783196304,exhalation,P002
75,left,0.15,2025-11-30 12:04:26.676121,2025-11-30 12:04:27.161125,0.485004,hit,1764504267.1611252,11.431961623966288,inhalation,P002
76,left,0.05,2025-11-30 12:04:28.676121,2025-11-30 12:04:29.295189,0.619068,hit,1764504269.295189,231.1785382757857,exhalation,P002
77,left,0.15,2025-11-30 12:04:35.676121,2025-11-30 12:04:36.197335,0.521214,hit,1764504276.197335,218.124204075571,exhalation,P002
78,right,0.15,2025-11-30 12:04:42.676121,2025-11-30 12:04:43.192698,0.516576,hit,1764504283.192698,224.29904240701663,exhalation,P002
79,right,0.15,2025-11-30 12:04:47.676121,2025-11-30 12:04:48.348463,0.672341,hit,1764504288.348463,358.40020230645746,inhalation,P002
80,left,0.05,2025-11-30 12:04:51.676121,2025-11-30 12:04:52.165915,0.489794,hit,1764504292.1659148,346.540743181023,inhalation,P002
81,left,0.15,2025-11-30 12:04:58.676121,2025-11-30 12:04:59.246793,0.570671,hit,1764504299.246793,267.9634875992753,exhalation,P002
82,left,0.05,2025-11-30 12:05:02.676121,2025-11-30 12:05:03.246144,0.570023,hit,1764504303.246144,244.00714300195293,exhalation,P002
83,right,0.1,2025-11-30 12:05:09.676121,2025-11-30 12:05:10.266000,0.589879,hit,1764504310.2659998,221.85398938489632,exhalation,P002
84,left,0.1,2025-11-30 12:05:14.676121,2025-11-30 12:05:15.158867,0.482746,hit,1764504315.158867,17.57354696890542,inhalation,P002
85,right,0.15,2025-11-30 12:05:18.676121,2025-11-30 12:05:19.217212,0.54109,hit,1764504319.217212,89.96929244014689,inhalation,P002
86,left,0.05,2025-11-30 12:05:25.676121,2025-11-30 12:05:26.187809,0.511687,hit,1764504326.187809,41.079691941327496,inhalation,P002
87,left,0.05,2025-11-30 12:05:30.676121,2025-11-30 12:05:31.247056,0.570934,hit,1764504331.2470558,223.9755524149429,exhalation,P002
88,right,0.1,2025-11-30 12:05:32.676121,2025-11-30 12:05:33.227832,0.551711,hit,1764504333.227832,78.2582806470258,inhalation,P002
89,right,0.15,2025-11-30 12:05:39.676121,2025-11-30 12:05:40.241143,0.565022,hit,1764504340.241143,12.1840503194328,inhalation,P002
90,right,0.1,2025-11-30 12:05:41.676121,2025-11-30 12:05:42.233431,0.55731,hit,1764504342.233431,189.35320937937067,exhalation,P002
91,left,0.05,2025-11-30 12:05:43.676121,2025-11-30 12:05:44.216263,0.540142,hit,1764504344.2162628,349.25645285745725,inhalation,P002
92,right,0.15,2025-11-30 12:05:48.676121,2025-11-30 12:05:49.285465,0.609343,hit,1764504349.285465,49.40608139102551,inhalation,P002
93,left,0.05,2025-11-30 12:05:55.676121,2025-11-30 12:05:56.257770,0.581648,hit,1764504356.25777,270.0,inhalation,P002
94,right,0.05,2025-11-30 12:05:59.676121,2025-11-30 12:06:00.230408,0.554287,hit,1764504360.230408,227.1659479440275,exhalation,P002
95,right,0.15,2025-11-30 12:06:01.676121,2025-11-30 12:06:02.292584,0.616463,hit,1764504362.292584,90.0,inhalation,P002
96,right,0.15,2025-11-30 12:06:03.676121,2025-11-30 12:06:04.240584,0.564463,hit,1764504364.240584,292.23935919698295,inhalation,P002
97,left,0.05,2025-11-30 12:06:08.676121,2025-11-30 12:06:09.402986,0.726864,hit,1764504369.402986,90.0,inhalation,P002
98,left,0.15,2025-11-30 12:06:12.676121,2025-11-30 12:06:13.195974,0.519852,hit,1764504373.195974,133.91606135716307,exhalation,P002
99,left,0.1,2025-11-30 12:06:14.676121,2025-11-30 12:06:15.201691,0.525569,hit,1764504375.201691,341.70162757247385,inhalation,P002
100,left,0.05,2025-11-30 12:06:19.676121,2025-11-30 12:06:20.310349,0.634228,hit,1764504380.310349,174.48631829391584,exhalation,P002
101,left,0.1,2025-11-30 12:06:26.676121,2025-11-30 12:06:27.311520,0.635398,hit,1764504387.31152,144.7520004993046,exhalation,P002
102,left,0.1,2025-11-30 12:06:28.676121,2025-11-30 12:06:29.248939,0.572818,hit,1764504389.248939,302.4167832770744,inhalation,P002
103,right,0.15,2025-11-30 12:06:35.676121,2025-11-30 12:06:36.219544,0.543423,hit,1764504396.2195442,202.49403296227223,exhalation,P002
104,right,0.1,2025-11-30 12:06:42.676121,2025-11-30 12:06:43.287242,0.61112,hit,1764504403.287242,100.68569976652108,exhalation,P002
105,right,0.1,2025-11-30 12:06:49.676121,2025-11-30 12:06:50.220857,0.544736,hit,1764504410.2208571,90.0,inhalation,P002
106,right,0.1,2025-11-30 12:06:56.676121,2025-11-30 12:06:57.273024,0.596903,hit,1764504417.273024,53.81128251220673,inhalation,P002
107,right,0.05,2025-11-30 12:06:58.676121,2025-11-30 12:06:59.357353,0.681231,hit,1764504419.357353,251.59273428376952,exhalation,P002
108,left,0.05,2025-11-30 12:07:05.676121,2025-11-30 12:07:06.287979,0.611858,hit,1764504426.2879791,326.31350713847314,inhalation,P002
109,left,0.15,2025-11-30 12:07:09.676121,2025-11-30 12:07:10.300233,0.624112,hit,1764504430.300233,39.23043757569121,inhalation,P002
110,left,0.15,2025-11-30 12:07:11.676121,2025-11-30 12:07:12.270570,0.594449,hit,1764504432.27057,279.4870719053514,inhalation,P002
111,left,0.15,2025-11-30 12:07:16.676121,2025-11-30 12:07:17.285811,0.60969,hit,1764504437.285811,72.72966073799239,inhalation,P002
112,left,0.05,2025-11-30 12:07:20.676121,2025-11-30 12:07:21.205785,0.529664,hit,1764504441.205785,118.81631147352726,exhalation,P002
113,left,0.05,2025-11-30 12:07:22.676121,2025-11-30 12:07:23.305527,0.629406,hit,1764504443.305527,300.91411623998164,inhalation,P002
114,left,0.15,2025-11-30 12:07:26.676121,2025-11-30 12:07:27.230681,0.554559,hit,1764504447.2306812,261.5884098402979,exhalation,P002
115,left,0.05,2025-11-30 12:07:31.676121,2025-11-30 12:07:32.314680,0.638559,hit,1764504452.31468,36.7741884942875,inhalation,P002
116,right,0.05,2025-11-30 12:07:38.676121,2025-11-30 12:07:39.279787,0.603666,hit,1764504459.279787,316.8474036534204,inhalation,P002
117,right,0.05,2025-11-30 12:07:45.676121,2025-11-30 12:07:46.326217,0.650095,hit,1764504466.326217,208.81691295831249,exhalation,P002
118,right,0.05,2025-11-30 12:07:47.676121,2025-11-30 12:07:48.276896,0.600775,hit,1764504468.276896,23.291273953760083,inhalation,P002
119,left,0.05,2025-11-30 12:07:54.676121,2025-11-30 12:07:55.254396,0.578275,hit,1764504475.254396,349.62700496629463,inhalation,P002
120,left,0.1,2025-11-30 12:08:01.676121,2025-11-30 12:08:02.229947,0.553826,hit,1764504482.2299469,237.30717259769943,exhalation,P002
121,right,0.1,2025-11-30 12:08:03.676121,2025-11-30 12:08:04.238757,0.562635,hit,1764504484.2387571,44.65251948283276,inhalation,P002
122,left,0.05,2025-11-30 12:08:10.676121,2025-11-30 12:08:11.312337,0.636216,hit,1764504491.312337,337.3802242263447,inhalation,P002
123,left,0.1,2025-11-30 12:08:12.676121,2025-11-30 12:08:13.277774,0.601653,hit,1764504493.277774,177.52498782827848,exhalation,P002
124,right,0.1,2025-11-30 12:08:19.676121,2025-11-30 12:08:20.222974,0.546853,hit,1764504500.222974,100.23565444459804,exhalation,P002
125,left,0.1,2025-11-30 12:08:23.676121,2025-11-30 12:08:24.263294,0.587172,hit,1764504504.263294,157.341994436162,exhalation,P002
126,right,0.1,2025-11-30 12:08:25.676121,2025-11-30 12:08:26.270800,0.594678,hit,1764504506.2708,6.318963365190029,inhalation,P002
1,right,0.15,2025-11-30 17:45:27.129117,2025-11-30 17:45:27.734811,0.605693,hit,1764524727.7348108,251.7097909880016,exhalation,P003
2,right,0.05,2025-11-30 17:45:31.129117,2025-11-30 17:45:31.671988,0.542871,hit,1764524731.671988,144.3616399776056,exhalation,P003
3,left,0.1,2025-11-30 17:45:35.129117,2025-11-30 17:45:35.589734,0.460616,hit,1764524735.5897338,90.0,inhalation,P003
4,right,0.15,2025-11-30 17:45:37.129117,2025-11-30 17:45:37.650135,0.521017,hit,1764524737.650135,36.8110055312236,inhalation,P003
5,right,0.05,2025-11-30 17:45:44.129117,2025-11-30 17:45:44.596864,0.467747,hit,1764524744.596864,56.02167577581753,inhalation,P003
6,right,0.1,2025-11-30 17:45:49.129117,2025-11-30 17:45:49.610091,0.480973,hit,1764524749.610091,67.09615168978735,inhalation,P003
7,left,0.15,2025-11-30 17:45:53.129117,2025-11-30 17:45:53.610501,0.481383,hit,1764524753.610501,352.6184607612041,inhalation,P003
8,right,0.05,2025-11-30 17:46:00.129117,2025-11-30 17:46:00.659558,0.530441,hit,1764524760.6595578,315.1171160521721,inhalation,P003
9,right,0.1,2025-11-30 17:46:07.129117,2025-11-30 17:46:07.758811,0.629694,hit,1764524767.758811,108.90046202841808,exhalation,P003
10,left,0.1,2025-11-30 17:46:12.129117,2025-11-30 17:46:12.676353,0.547236,hit,1764524772.676353,274.5949942449563,inhalation,P003
11,left,0.1,2025-11-30 17:46:16.129117,2025-11-30 17:46:16.731857,0.602739,hit,1764524776.7318568,112.10763640883314,exhalation,P003
12,left,0.15,2025-11-30 17:46:20.129117,2025-11-30 17:46:20.729793,0.600676,hit,1764524780.729793,57.65269899751689,inhalation,P003
13,left,0.15,2025-11-30 17:46:27.129117,2025-11-30 17:46:27.629761,0.500644,hit,1764524787.629761,90.0,inhalation,P003
14,right,0.15,2025-11-30 17:46:32.129117,2025-11-30 17:46:32.552263,0.423145,hit,1764524792.552263,119.30242828777526,exhalation,P003
15,left,0.1,2025-11-30 17:46:39.129117,2025-11-30 17:46:39.545370,0.416252,hit,1764524799.54537,117.3346129096718,exhalation,P003
16,left,0.05,2025-11-30 17:46:44.129117,2025-11-30 17:46:44.619786,0.490668,hit,1764524804.619786,165.92892666618397,exhalation,P003
17,left,0.1,2025-11-30 17:46:46.129117,2025-11-30 17:46:46.744641,0.615523,hit,1764524806.744641,121.20285065295508,exhalation,P003
18,right,0.15,2025-11-30 17:46:51.129117,2025-11-30 17:46:51.608731,0.479613,hit,1764524811.6087308,103.60167297331311,exhalation,P003
19,left,0.1,2025-11-30 17:46:55.129117,2025-11-30 17:46:55.659631,0.530514,hit,1764524815.659631,306.4019500651584,inhalation,P003
20,right,0.1,2025-11-30 17:47:00.129117,2025-11-30 17:47:00.539221,0.410103,hit,1764524820.539221,334.79936404049045,inhalation,P003
21,right,0.1,2025-11-30 17:47:02.129117,2025-11-30 17:47:02.711490,0.582372,hit,1764524822.7114902,324.92977542629853,inhalation,P003
22,right,0.15,2025-11-30 17:47:04.129117,2025-11-30 17:47:04.574291,0.445173,hit,1764524824.574291,257.2190086302156,exhalation,P003
23,left,0.15,2025-11-30 17:47:06.129117,2025-11-30 17:47:06.558117,0.429,hit,1764524826.5581172,186.53360919767184,exhalation,P003
24,right,0.05,2025-11-30 17:47:13.129117,2025-11-30 17:47:13.595596,0.466479,hit,1764524833.595596,192.06647288369692,exhalation,P003
25,left,0.15,2025-11-30 17:47:18.129117,2025-11-30 17:47:18.613164,0.484047,hit,1764524838.613164,158.1484618685147,exhalation,P003
26,left,0.1,2025-11-30 17:47:22.129117,2025-11-30 17:47:22.595133,0.466015,hit,1764524842.5951328,337.7028871697172,inhalation,P003
27,right,0.15,2025-11-30 17:47:24.129117,2025-11-30 17:47:24.606432,0.477314,hit,1764524844.606432,282.5289255831552,inhalation,P003
28,right,0.15,2025-11-30 17:47:26.129117,2025-11-30 17:47:26.555245,0.426127,hit,1764524846.5552452,212.50431307462165,exhalation,P003
29,left,0.05,2025-11-30 17:47:30.129117,2025-11-30 17:47:30.561417,0.4323,hit,1764524850.5614169,141.06531053307205,exhalation,P003
30,right,0.05,2025-11-30 17:47:37.129117,2025-11-30 17:47:37.665773,0.536655,hit,1764524857.6657732,105.4483812512946,exhalation,P003
31,left,0.05,2025-11-30 17:47:44.129117,2025-11-30 17:47:44.657938,0.528821,hit,1764524864.657938,318.696536717826,inhalation,P003
32,right,0.05,2025-11-30 17:47:51.129117,2025-11-30 17:47:51.665802,0.536684,hit,1764524871.665802,270.0,inhalation,P003
33,right,0.05,2025-11-30 17:47:53.129117,2025-11-30 17:47:53.685358,0.55624,hit,1764524873.685358,206.67245350803043,exhalation,P003
34,right,0.15,2025-11-30 17:47:58.129117,2025-11-30 17:47:58.609679,0.480561,hit,1764524878.6096792,214.27647102400127,exhalation,P003
35,right,0.05,2025-11-30 17:48:00.129117,2025-11-30 17:48:00.626813,0.497695,hit,1764524880.626813,154.39207988349904,exhalation,P003
36,right,0.15,2025-11-30 17:48:04.129117,2025-11-30 17:48:04.681715,0.552598,hit,1764524884.681715,48.67912992041301,inhalation,P003
37,left,0.1,2025-11-30 17:48:09.129117,2025-11-30 17:48:09.776452,0.647334,hit,1764524889.776452,132.96082450769066,exhalation,P003
38,left,0.1,2025-11-30 17:48:13.129117,2025-11-30 17:48:13.685045,0.555928,hit,1764524893.685045,6.224749655680853,inhalation,P003
39,right,0.15,2025-11-30 17:48:20.129117,2025-11-30 17:48:20.857849,0.728731,hit,1764524900.8578491,66.7878751663734,inhalation,P003
40,right,0.05,2025-11-30 17:48:27.129117,2025-11-30 17:48:27.761030,0.631912,hit,1764524907.76103,15.871201232068644,inhalation,P003
41,left,0.15,2025-11-30 17:48:31.129117,2025-11-30 17:48:31.828264,0.699146,hit,1764524911.828264,270.0,inhalation,P003
42,left,0.05,2025-11-30 17:48:36.129117,2025-11-30 17:48:36.849601,0.720484,hit,1764524916.849601,198.30336207093228,exhalation,P003
43,left,0.1,2025-11-30 17:48:41.129117,2025-11-30 17:48:41.798648,0.669531,hit,1764524921.798648,260.53298728353684,exhalation,P003
44,left,0.15,2025-11-30 17:48:48.129117,2025-11-30 17:48:48.781747,0.65263,hit,1764524928.7817469,160.23310235622398,exhalation,P003
45,left,0.1,2025-11-30 17:48:50.129117,2025-11-30 17:48:50.770119,0.641002,hit,1764524930.770119,103.0937153175302,exhalation,P003
46,right,0.1,2025-11-30 17:48:55.129117,2025-11-30 17:48:55.741884,0.612766,hit,1764524935.741884,53.10475974494062,inhalation,P003
47,left,0.1,2025-11-30 17:48:57.129117,2025-11-30 17:48:57.762693,0.633575,hit,1764524937.7626932,355.7451762996998,inhalation,P003
48,left,0.05,2025-11-30 17:49:02.129117,2025-11-30 17:49:02.752460,0.623342,hit,1764524942.75246,55.80733385686904,inhalation,P003
49,right,0.1,2025-11-30 17:49:04.129117,2025-11-30 17:49:04.722465,0.593347,hit,1764524944.722465,354.30595137722713,inhalation,P003
50,right,0.1,2025-11-30 17:49:11.129117,2025-11-30 17:49:11.730186,0.601068,hit,1764524951.730186,343.45995871150467,inhalation,P003
51,right,0.05,2025-11-30 17:49:18.129117,2025-11-30 17:49:18.753793,0.624675,hit,1764524958.753793,300.8227848728634,inhalation,P003
52,right,0.05,2025-11-30 17:49:22.129117,2025-11-30 17:49:22.914183,0.785066,hit,1764524962.914183,221.41459595756103,exhalation,P003
53,left,0.15,2025-11-30 17:49:26.129117,2025-11-30 17:49:26.926832,0.797714,hit,1764524966.9268322,168.29675105528827,exhalation,P003
54,left,0.05,2025-11-30 17:49:31.129117,2025-11-30 17:49:31.832046,0.702928,hit,1764524971.832046,213.5098784595312,exhalation,P003
55,right,0.05,2025-11-30 17:49:33.129117,2025-11-30 17:49:33.764565,0.635447,hit,1764524973.764565,128.35620373958085,exhalation,P003
56,right,0.15,2025-11-30 17:49:38.129117,2025-11-30 17:49:38.767069,0.637952,hit,1764524978.7670689,76.76553728534691,inhalation,P003
57,right,0.1,2025-11-30 17:49:40.129117,2025-11-30 17:49:40.816646,0.687529,hit,1764524980.816646,284.4275201973156,inhalation,P003
58,right,0.05,2025-11-30 17:49:45.129117,2025-11-30 17:49:45.932010,0.802893,hit,1764524985.93201,77.40345709399446,inhalation,P003
59,right,0.05,2025-11-30 17:49:49.129117,2025-11-30 17:49:49.831308,0.702191,hit,1764524989.831308,198.1418409119326,exhalation,P003
60,right,0.05,2025-11-30 17:49:54.129117,2025-11-30 17:49:54.787146,0.658028,hit,1764524994.787146,175.33238648751347,exhalation,P003
61,right,0.1,2025-11-30 17:49:56.129117,2025-11-30 17:49:56.838764,0.709646,hit,1764524996.838764,109.47534679083036,exhalation,P003
62,left,0.15,2025-11-30 17:50:01.129117,2025-11-30 17:50:01.809740,0.680622,hit,1764525001.80974,306.8801630563587,inhalation,P003
63,left,0.1,2025-11-30 17:50:03.129117,2025-11-30 17:50:03.900193,0.771076,hit,1764525003.900193,225.45310841304303,exhalation,P003
64,right,0.1,2025-11-30 17:50:08.129117,2025-11-30 17:50:09.004215,0.875097,hit,1764525009.004215,136.37767260111764,exhalation,P003
65,left,0.15,2025-11-30 17:50:13.129117,2025-11-30 17:50:14.055323,0.926205,hit,1764525014.055323,199.48426009566643,exhalation,P003
66,left,0.15,2025-11-30 17:50:20.129117,2025-11-30 17:50:20.876108,0.74699,hit,1764525020.876108,221.6305937112076,exhalation,P003
67,right,0.05,2025-11-30 17:50:25.129117,2025-11-30 17:50:25.938180,0.809062,hit,1764525025.9381802,111.4878924363674,exhalation,P003
68,right,0.1,2025-11-30 17:50:27.129117,2025-11-30 17:50:27.927988,0.798871,hit,1764525027.927988,13.48963624067585,inhalation,P003
69,right,0.1,2025-11-30 17:50:34.129117,2025-11-30 17:50:34.886361,0.757244,hit,1764525034.8863611,18.504858028190085,inhalation,P003
70,left,0.1,2025-11-30 17:50:36.129117,2025-11-30 17:50:36.994066,0.864948,hit,1764525036.994066,344.418613727302,inhalation,P003
71,left,0.15,2025-11-30 17:50:38.129117,2025-11-30 17:50:38.794139,0.665021,hit,1764525038.794139,279.72644083347416,inhalation,P003
72,right,0.15,2025-11-30 17:50:43.129117,2025-11-30 17:50:43.779640,0.650523,hit,1764525043.77964,250.65082335534385,exhalation,P003
73,left,0.15,2025-11-30 17:50:50.129117,2025-11-30 17:50:50.785681,0.656564,hit,1764525050.785681,147.6942133676541,exhalation,P003
74,right,0.15,2025-11-30 17:50:52.129117,2025-11-30 17:50:53.024130,0.895012,hit,1764525053.02413,106.38246369107196,exhalation,P003
75,left,0.15,2025-11-30 17:50:54.129117,2025-11-30 17:50:54.923513,0.794396,hit,1764525054.9235132,7.512963819111235,inhalation,P003
76,left,0.05,2025-11-30 17:50:56.129117,2025-11-30 17:50:56.890882,0.761764,hit,1764525056.890882,302.90858386465294,inhalation,P003
77,left,0.15,2025-11-30 17:51:03.129117,2025-11-30 17:51:03.935570,0.806452,hit,1764525063.93557,203.6038741652862,exhalation,P003
78,right,0.15,2025-11-30 17:51:10.129117,2025-11-30 17:51:10.775181,0.646064,hit,1764525070.775181,67.81147129753327,inhalation,P003
79,right,0.15,2025-11-30 17:51:15.129117,2025-11-30 17:51:15.802084,0.672967,hit,1764525075.8020842,39.67674530873597,inhalation,P003
80,left,0.05,2025-11-30 17:51:19.129117,2025-11-30 17:51:20.614716,1.485598,hit,1764525080.6147158,90.0,inhalation,P003
81,left,0.15,2025-11-30 17:51:26.129117,2025-11-30 17:51:26.910573,0.781455,hit,1764525086.910573,355.50915011603684,inhalation,P003
82,left,0.05,2025-11-30 17:51:30.129117,2025-11-30 17:51:31.041553,0.912436,hit,1764525091.0415528,231.6337599930104,exhalation,P003
83,right,0.1,2025-11-30 17:51:37.129117,2025-11-30 17:51:37.874151,0.745034,hit,1764525097.874151,136.80701336558366,exhalation,P003
84,left,0.1,2025-11-30 17:51:42.129117,2025-11-30 17:51:42.934770,0.805653,hit,1764525102.93477,155.93200542020946,exhalation,P003
85,right,0.15,2025-11-30 17:51:46.129117,2025-11-30 17:51:46.975091,0.845973,hit,1764525106.975091,70.665638201457,inhalation,P003
86,left,0.05,2025-11-30 17:51:53.129117,2025-11-30 17:51:53.956224,0.827107,hit,1764525113.956224,9.612642233442898,inhalation,P003
87,left,0.05,2025-11-30 17:51:58.129117,2025-11-30 17:51:58.862533,0.733416,hit,1764525118.862533,246.60564355247743,exhalation,P003
88,right,0.1,2025-11-30 17:52:00.129117,2025-11-30 17:52:00.803862,0.674744,hit,1764525120.803862,157.04916456071493,exhalation,P003
89,right,0.15,2025-11-30 17:52:07.129117,2025-11-30 17:52:07.822938,0.693821,hit,1764525127.8229382,270.0,inhalation,P003
90,right,0.1,2025-11-30 17:52:09.129117,2025-11-30 17:52:09.791177,0.662059,hit,1764525129.791177,195.8123026698796,exhalation,P003
91,left,0.05,2025-11-30 17:52:11.129117,2025-11-30 17:52:11.810337,0.681219,hit,1764525131.810337,113.46505120587577,exhalation,P003
92,right,0.15,2025-11-30 17:52:16.129117,2025-11-30 17:52:16.834342,0.705225,hit,1764525136.834342,206.8532135048976,exhalation,P003
93,left,0.05,2025-11-30 17:52:23.129117,2025-11-30 17:52:23.825250,0.696132,hit,1764525143.82525,203.24865468791648,exhalation,P003
94,right,0.05,2025-11-30 17:52:27.129117,2025-11-30 17:52:27.855503,0.726385,hit,1764525147.855503,119.31428016736544,exhalation,P003
95,right,0.15,2025-11-30 17:52:29.129117,2025-11-30 17:52:29.798933,0.669815,hit,1764525149.798933,243.74108855430887,exhalation,P003
96,right,0.15,2025-11-30 17:52:31.129117,2025-11-30 17:52:31.962909,0.833792,hit,1764525151.962909,181.3384958216971,exhalation,P003
97,left,0.05,2025-11-30 17:52:36.129117,2025-11-30 17:52:36.831833,0.702715,hit,1764525156.8318331,99.07760036086322,exhalation,P003
98,left,0.15,2025-11-30 17:52:40.129117,2025-11-30 17:52:40.855707,0.72659,hit,1764525160.855707,247.31007899331064,exhalation,P003
99,left,0.1,2025-11-30 17:52:42.129117,2025-11-30 17:52:42.987887,0.85877,hit,1764525162.9878871,66.53802051544989,inhalation,P003
100,left,0.05,2025-11-30 17:52:47.129117,2025-11-30 17:52:48.106532,0.977414,hit,1764525168.106532,358.07941272905896,inhalation,P003
101,left,0.1,2025-11-30 17:52:54.129117,2025-11-30 17:52:54.970658,0.84154,hit,1764525174.970658,99.43635802940167,exhalation,P003
102,left,0.1,2025-11-30 17:52:56.129117,2025-11-30 17:52:56.893567,0.764449,hit,1764525176.893567,289.248712671336,inhalation,P003
103,right,0.15,2025-11-30 17:53:03.129117,2025-11-30 17:53:03.847075,0.717958,hit,1764525183.847075,212.821222575923,exhalation,P003
104,right,0.1,2025-11-30 17:53:10.129117,2025-11-30 17:53:10.890292,0.761175,hit,1764525190.890292,317.84414035630147,inhalation,P003
105,right,0.1,2025-11-30 17:53:17.129117,2025-11-30 17:53:17.877954,0.748837,hit,1764525197.877954,231.92647297249903,exhalation,P003
106,right,0.1,2025-11-30 17:53:24.129117,2025-11-30 17:53:24.908417,0.779299,hit,1764525204.908417,171.79068721036086,exhalation,P003
107,right,0.05,2025-11-30 17:53:26.129117,2025-11-30 17:53:26.867983,0.738866,hit,1764525206.867983,102.20434023386431,exhalation,P003
108,left,0.05,2025-11-30 17:53:33.129117,2025-11-30 17:53:33.921142,0.792025,hit,1764525213.921142,176.1887090130889,exhalation,P003
109,left,0.15,2025-11-30 17:53:37.129117,2025-11-30 17:53:37.825360,0.696242,hit,1764525217.8253598,299.9937837090536,inhalation,P003
110,left,0.15,2025-11-30 17:53:39.129117,2025-11-30 17:53:39.897976,0.768859,hit,1764525219.8979762,27.66810136618483,inhalation,P003
111,left,0.15,2025-11-30 17:53:44.129117,2025-11-30 17:53:45.109758,0.98064,hit,1764525225.109758,224.01865147427665,exhalation,P003
112,left,0.05,2025-11-30 17:53:48.129117,2025-11-30 17:53:48.914309,0.785192,hit,1764525228.914309,24.47144608177672,inhalation,P003
113,left,0.05,2025-11-30 17:53:50.129117,2025-11-30 17:53:50.918970,0.789853,hit,1764525230.91897,288.2895072070495,inhalation,P003
114,left,0.15,2025-11-30 17:53:54.129117,2025-11-30 17:53:54.875375,0.746257,hit,1764525234.875375,143.83149434121336,exhalation,P003
115,left,0.05,2025-11-30 17:53:59.129117,2025-11-30 17:53:59.890578,0.761461,hit,1764525239.890578,110.44112411062096,exhalation,P003
116,right,0.05,2025-11-30 17:54:06.129117,2025-11-30 17:54:06.899213,0.770095,hit,1764525246.899213,246.9338141393605,exhalation,P003
117,right,0.05,2025-11-30 17:54:13.129117,2025-11-30 17:54:13.906307,0.77719,hit,1764525253.906307,244.3347290361301,exhalation,P003
118,right,0.05,2025-11-30 17:54:15.129117,2025-11-30 17:54:15.912382,0.783264,hit,1764525255.912382,157.542184125067,exhalation,P003
119,left,0.05,2025-11-30 17:54:22.129117,2025-11-30 17:54:22.889779,0.760661,hit,1764525262.8897789,109.7986207319316,exhalation,P003
120,left,0.1,2025-11-30 17:54:29.129117,2025-11-30 17:54:29.891230,0.762113,hit,1764525269.89123,230.85172129418308,exhalation,P003
121,right,0.1,2025-11-30 17:54:31.129117,2025-11-30 17:54:31.994444,0.865326,hit,1764525271.994444,81.33479996735969,inhalation,P003
122,left,0.05,2025-11-30 17:54:38.129117,2025-11-30 17:54:39.077103,0.947986,hit,1764525279.0771031,138.55622790220502,exhalation,P003
123,left,0.1,2025-11-30 17:54:40.129117,2025-11-30 17:54:41.181964,1.052846,hit,1764525281.181964,74.06031044284731,inhalation,P003
124,right,0.1,2025-11-30 17:54:47.129117,2025-11-30 17:54:47.978247,0.84913,hit,1764525287.978247,101.46782898631989,exhalation,P003
125,left,0.1,2025-11-30 17:54:51.129117,2025-11-30 17:54:51.896448,0.76733,hit,1764525291.896448,189.19316112475184,exhalation,P003
126,right,0.1,2025-11-30 17:54:53.129117,2025-11-30 17:54:53.973958,0.844841,hit,1764525293.9739578,236.32912489044529,exhalation,P003
1,right,0.15,2025-11-30 19:34:06.954925,2025-11-30 19:34:07.468389,0.513464,hit,1764531247.468389,207.9678020948812,exhalation,P004
2,right,0.05,2025-11-30 19:34:10.954925,2025-11-30 19:34:11.471466,0.516541,hit,1764531251.471466,350.31514193632273,inhalation,P004
3,left,0.1,2025-11-30 19:34:14.954925,2025-11-30 19:34:15.469883,0.514958,hit,1764531255.469883,138.01986757551825,exhalation,P004
4,right,0.15,2025-11-30 19:34:16.954925,2025-11-30 19:34:17.519950,0.565025,hit,1764531257.5199502,13.123118578249604,inhalation,P004
5,right,0.05,2025-11-30 19:34:23.954925,2025-11-30 19:34:24.477399,0.522474,hit,1764531264.477399,257.94091346300945,exhalation,P004
6,right,0.1,2025-11-30 19:34:28.954925,2025-11-30 19:34:29.522117,0.567193,hit,1764531269.5221171,90.0,inhalation,P004
7,left,0.15,2025-11-30 19:34:32.954925,2025-11-30 19:34:33.417906,0.462981,hit,1764531273.4179058,165.6768095646562,exhalation,P004
8,right,0.05,2025-11-30 19:34:39.954925,2025-11-30 19:34:40.518279,0.563355,hit,1764531280.5182788,247.9992574189264,exhalation,P004
9,right,0.1,2025-11-30 19:34:46.954925,2025-11-30 19:34:47.408776,0.453852,hit,1764531287.408776,62.59878905594638,inhalation,P004
10,left,0.1,2025-11-30 19:34:51.954925,2025-11-30 19:34:52.459198,0.504274,hit,1764531292.459198,161.70192592630076,exhalation,P004
11,left,0.1,2025-11-30 19:34:55.954925,2025-11-30 19:34:56.457691,0.502767,hit,1764531296.457691,103.54094302375653,exhalation,P004
12,left,0.15,2025-11-30 19:34:59.954925,2025-11-30 19:35:00.406913,0.451988,hit,1764531300.406913,64.68060157226137,inhalation,P004
13,left,0.15,2025-11-30 19:35:06.954925,2025-11-30 19:35:07.438057,0.483133,hit,1764531307.438057,252.693955297762,exhalation,P004
14,right,0.15,2025-11-30 19:35:11.954925,2025-11-30 19:35:12.413950,0.459025,hit,1764531312.41395,290.5180219910238,inhalation,P004
15,left,0.1,2025-11-30 19:35:18.954925,2025-11-30 19:35:19.468871,0.513947,hit,1764531319.4688709,154.75202800820017,exhalation,P004
16,left,0.05,2025-11-30 19:35:23.954925,2025-11-30 19:35:24.460480,0.505556,hit,1764531324.46048,198.3923059722291,exhalation,P004
17,left,0.1,2025-11-30 19:35:25.954925,2025-11-30 19:35:26.471755,0.51683,hit,1764531326.471755,55.20222733983314,inhalation,P004
18,right,0.15,2025-11-30 19:35:30.954925,2025-11-30 19:35:31.422680,0.467756,hit,1764531331.42268,150.91590618598906,exhalation,P004
19,left,0.1,2025-11-30 19:35:34.954925,2025-11-30 19:35:35.419740,0.464815,hit,1764531335.41974,154.72278102400156,exhalation,P004
20,right,0.1,2025-11-30 19:35:39.954925,2025-11-30 19:35:40.451994,0.497069,hit,1764531340.4519942,230.1619581444928,exhalation,P004
21,right,0.1,2025-11-30 19:35:41.954925,2025-11-30 19:35:42.441395,0.48647,hit,1764531342.441395,166.70006390128032,exhalation,P004
22,right,0.15,2025-11-30 19:35:43.954925,2025-11-30 19:35:44.431266,0.476341,hit,1764531344.431266,90.0,inhalation,P004
23,left,0.15,2025-11-30 19:35:45.954925,2025-11-30 19:35:46.396385,0.44146,hit,1764531346.396385,244.64920394171352,exhalation,P004
24,right,0.05,2025-11-30 19:35:52.954925,2025-11-30 19:35:53.451151,0.496226,hit,1764531353.4511511,204.07400399185616,exhalation,P004
25,left,0.15,2025-11-30 19:35:57.954925,2025-11-30 19:35:58.419050,0.464125,hit,1764531358.41905,236.488195656498,exhalation,P004
26,left,0.1,2025-11-30 19:36:01.954925,2025-11-30 19:36:02.420489,0.465565,hit,1764531362.420489,219.55310225903528,exhalation,P004
27,right,0.15,2025-11-30 19:36:03.954925,2025-11-30 19:36:04.404555,0.44963,hit,1764531364.404555,70.46675168193929,inhalation,P004
28,right,0.15,2025-11-30 19:36:05.954925,2025-11-30 19:36:06.403876,0.448951,hit,1764531366.403876,270.0,inhalation,P004
29,left,0.05,2025-11-30 19:36:09.954925,2025-11-30 19:36:10.432752,0.477828,hit,1764531370.432752,332.9207849512772,inhalation,P004
30,right,0.05,2025-11-30 19:36:16.954925,2025-11-30 19:36:17.452287,0.497363,hit,1764531377.452287,250.6498106005517,exhalation,P004
31,left,0.05,2025-11-30 19:36:23.954925,2025-11-30 19:36:24.447696,0.492771,hit,1764531384.447696,179.66450495297855,exhalation,P004
32,right,0.05,2025-11-30 19:36:30.954925,2025-11-30 19:36:31.568455,0.61353,hit,1764531391.568455,104.8300639976187,exhalation,P004
33,right,0.05,2025-11-30 19:36:32.954925,2025-11-30 19:36:33.463938,0.509013,hit,1764531393.463938,239.1693406756958,exhalation,P004
34,right,0.15,2025-11-30 19:36:37.954925,2025-11-30 19:36:38.458436,0.503512,hit,1764531398.458436,76.07325497380214,inhalation,P004
35,right,0.05,2025-11-30 19:36:39.954925,2025-11-30 19:36:40.395439,0.440514,hit,1764531400.3954391,250.6319008624432,exhalation,P004
36,right,0.15,2025-11-30 19:36:43.954925,2025-11-30 19:36:44.416536,0.461611,hit,1764531404.416536,35.06630765690494,inhalation,P004
37,left,0.1,2025-11-30 19:36:48.954925,2025-11-30 19:36:49.441622,0.486697,hit,1764531409.441622,190.5344204593903,exhalation,P004
38,left,0.1,2025-11-30 19:36:52.954925,2025-11-30 19:36:53.433458,0.478533,hit,1764531413.433458,195.64991821498572,exhalation,P004
39,right,0.15,2025-11-30 19:36:59.954925,2025-11-30 19:37:00.587560,0.632635,hit,1764531420.58756,132.38712995561,exhalation,P004
40,right,0.05,2025-11-30 19:37:06.954925,2025-11-30 19:37:07.589587,0.634662,hit,1764531427.589587,118.64412024726518,exhalation,P004
41,left,0.15,2025-11-30 19:37:10.954925,2025-11-30 19:37:11.599486,0.644561,hit,1764531431.599486,102.38944306573391,exhalation,P004
42,left,0.05,2025-11-30 19:37:15.954925,2025-11-30 19:37:16.567081,0.612157,hit,1764531436.567081,168.399669861463,exhalation,P004
43,left,0.1,2025-11-30 19:37:20.954925,2025-11-30 19:37:21.561132,0.606207,hit,1764531441.561132,237.305797508803,exhalation,P004
44,left,0.15,2025-11-30 19:37:27.954925,2025-11-30 19:37:28.580040,0.625116,hit,1764531448.58004,153.9523360193408,exhalation,P004
45,left,0.1,2025-11-30 19:37:29.954925,2025-11-30 19:37:30.563815,0.608891,hit,1764531450.5638149,331.5735617614426,inhalation,P004
46,right,0.1,2025-11-30 19:37:34.954925,2025-11-30 19:37:35.584473,0.629548,hit,1764531455.5844731,237.9471784305292,exhalation,P004
47,left,0.1,2025-11-30 19:37:36.954925,2025-11-30 19:37:37.584178,0.629254,hit,1764531457.584178,152.33804195083195,exhalation,P004
48,left,0.05,2025-11-30 19:37:41.954925,2025-11-30 19:37:42.596298,0.641373,hit,1764531462.596298,225.2055857190976,exhalation,P004
49,right,0.1,2025-11-30 19:37:43.954925,2025-11-30 19:37:44.558519,0.603594,hit,1764531464.5585191,84.3253736455689,inhalation,P004
50,right,0.1,2025-11-30 19:37:50.954925,2025-11-30 19:37:51.567115,0.61219,hit,1764531471.567115,228.804287457503,exhalation,P004
51,right,0.05,2025-11-30 19:37:57.954925,2025-11-30 19:37:58.570444,0.615519,hit,1764531478.570444,142.68746644572633,exhalation,P004
52,right,0.05,2025-11-30 19:38:01.954925,2025-11-30 19:38:02.578361,0.623436,hit,1764531482.578361,179.0203640976763,exhalation,P004
53,left,0.15,2025-11-30 19:38:05.954925,2025-11-30 19:38:06.550753,0.595828,hit,1764531486.550753,207.8779625721949,exhalation,P004
54,left,0.05,2025-11-30 19:38:10.954925,2025-11-30 19:38:11.544030,0.589105,hit,1764531491.54403,345.7834970387396,inhalation,P004
55,right,0.05,2025-11-30 19:38:12.954925,2025-11-30 19:38:13.574038,0.619113,hit,1764531493.574038,213.1613443829763,exhalation,P004
56,right,0.15,2025-11-30 19:38:17.954925,2025-11-30 19:38:18.546109,0.591184,hit,1764531498.546109,45.41791811989344,inhalation,P004
57,right,0.1,2025-11-30 19:38:19.954925,2025-11-30 19:38:20.536004,0.581079,hit,1764531500.536004,282.5001269708351,inhalation,P004
58,right,0.05,2025-11-30 19:38:24.954925,2025-11-30 19:38:25.554170,0.599245,hit,1764531505.55417,104.74498833463338,exhalation,P004
59,right,0.05,2025-11-30 19:38:28.954925,2025-11-30 19:38:29.576869,0.621944,hit,1764531509.576869,80.57772071614465,inhalation,P004
60,right,0.05,2025-11-30 19:38:33.954925,2025-11-30 19:38:34.558549,0.603624,hit,1764531514.558549,90.0,inhalation,P004
61,right,0.1,2025-11-30 19:38:35.954925,2025-11-30 19:38:36.520829,0.565905,hit,1764531516.520829,193.56102387233096,exhalation,P004
62,left,0.15,2025-11-30 19:38:40.954925,2025-11-30 19:38:41.545345,0.59042,hit,1764531521.545345,95.34437102209036,exhalation,P004
63,left,0.1,2025-11-30 19:38:42.954925,2025-11-30 19:38:43.551574,0.59665,hit,1764531523.551574,187.5136924595426,exhalation,P004
64,right,0.1,2025-11-30 19:38:47.954925,2025-11-30 19:38:48.548759,0.593834,hit,1764531528.548759,121.35636431653892,exhalation,P004
65,left,0.15,2025-11-30 19:38:52.954925,2025-11-30 19:38:53.568793,0.613868,hit,1764531533.568793,344.64441584427334,inhalation,P004
66,left,0.15,2025-11-30 19:38:59.954925,2025-11-30 19:39:00.549675,0.59475,hit,1764531540.549675,283.6605731867477,inhalation,P004
67,right,0.05,2025-11-30 19:39:04.954925,2025-11-30 19:39:05.571120,0.616195,hit,1764531545.57112,65.89353419948435,inhalation,P004
68,right,0.1,2025-11-30 19:39:06.954925,2025-11-30 19:39:07.583498,0.628573,hit,1764531547.583498,236.03949717685043,exhalation,P004
69,right,0.1,2025-11-30 19:39:13.954925,2025-11-30 19:39:14.548172,0.593247,hit,1764531554.548172,107.46509492665808,exhalation,P004
70,left,0.1,2025-11-30 19:39:15.954925,2025-11-30 19:39:16.555397,0.600472,hit,1764531556.555397,241.5580355049836,exhalation,P004
71,left,0.15,2025-11-30 19:39:17.954925,2025-11-30 19:39:18.542757,0.587832,hit,1764531558.542757,79.63214457063799,inhalation,P004
72,right,0.15,2025-11-30 19:39:22.954925,2025-11-30 19:39:23.532020,0.577096,hit,1764531563.53202,158.67812409334232,exhalation,P004
73,left,0.15,2025-11-30 19:39:29.954925,2025-11-30 19:39:30.607601,0.652676,hit,1764531570.607601,242.84207420701472,exhalation,P004
74,right,0.15,2025-11-30 19:39:31.954925,2025-11-30 19:39:32.492503,0.537578,hit,1764531572.492503,97.37667212646306,exhalation,P004
75,left,0.15,2025-11-30 19:39:33.954925,2025-11-30 19:39:34.491054,0.53613,hit,1764531574.491054,261.32081854061084,exhalation,P004
76,left,0.05,2025-11-30 19:39:35.954925,2025-11-30 19:39:36.523300,0.568375,hit,1764531576.5233002,142.86181578170135,exhalation,P004
77,left,0.15,2025-11-30 19:39:42.954925,2025-11-30 19:39:43.588765,0.633841,hit,1764531583.588765,4.231509167422132,inhalation,P004
78,right,0.15,2025-11-30 19:39:49.954925,2025-11-30 19:39:50.536225,0.5813,hit,1764531590.536225,172.6048750950725,exhalation,P004
79,right,0.15,2025-11-30 19:39:54.954925,2025-11-30 19:39:55.553579,0.598655,hit,1764531595.553579,190.5480075809923,exhalation,P004
80,left,0.05,2025-11-30 19:39:58.954925,2025-11-30 19:39:59.583458,0.628533,hit,1764531599.583458,206.7435469679109,exhalation,P004
81,left,0.15,2025-11-30 19:40:05.954925,2025-11-30 19:40:06.605753,0.650828,hit,1764531606.6057532,111.92908620301642,exhalation,P004
82,left,0.05,2025-11-30 19:40:09.954925,2025-11-30 19:40:10.566464,0.611539,hit,1764531610.566464,132.25675827905508,exhalation,P004
83,right,0.1,2025-11-30 19:40:16.954925,2025-11-30 19:40:17.586949,0.632024,hit,1764531617.586949,329.6581510266743,inhalation,P004
84,left,0.1,2025-11-30 19:40:21.954925,2025-11-30 19:40:22.627397,0.672472,hit,1764531622.627397,46.50480068165291,inhalation,P004
85,right,0.15,2025-11-30 19:40:25.954925,2025-11-30 19:40:26.552330,0.597406,hit,1764531626.55233,17.115987352925004,inhalation,P004
86,left,0.05,2025-11-30 19:40:32.954925,2025-11-30 19:40:33.561557,0.606632,hit,1764531633.561557,189.58400466470707,exhalation,P004
87,left,0.05,2025-11-30 19:40:37.954925,2025-11-30 19:40:38.557825,0.602901,hit,1764531638.557825,249.35165618363,exhalation,P004
88,right,0.1,2025-11-30 19:40:39.954925,2025-11-30 19:40:40.568090,0.613165,hit,1764531640.5680902,97.57611751205386,exhalation,P004
89,right,0.15,2025-11-30 19:40:46.954925,2025-11-30 19:40:47.771257,0.816333,hit,1764531647.7712572,82.77976596957296,inhalation,P004
90,right,0.1,2025-11-30 19:40:48.954925,2025-11-30 19:40:49.522637,0.567713,hit,1764531649.5226371,242.4706496109494,exhalation,P004
91,left,0.05,2025-11-30 19:40:50.954925,2025-11-30 19:40:51.551265,0.596341,hit,1764531651.551265,123.92862547178372,exhalation,P004
92,right,0.15,2025-11-30 19:40:55.954925,2025-11-30 19:40:56.612122,0.657197,hit,1764531656.612122,195.3938929091672,exhalation,P004
93,left,0.05,2025-11-30 19:41:02.954925,2025-11-30 19:41:03.585654,0.630729,hit,1764531663.585654,270.0,inhalation,P004
94,right,0.05,2025-11-30 19:41:06.954925,2025-11-30 19:41:07.537813,0.582888,hit,1764531667.537813,176.02274446600882,exhalation,P004
95,right,0.15,2025-11-30 19:41:08.954925,2025-11-30 19:41:09.532225,0.577301,hit,1764531669.5322251,289.36715329190133,inhalation,P004
96,right,0.15,2025-11-30 19:41:10.954925,2025-11-30 19:41:11.510878,0.555953,hit,1764531671.5108778,124.75945862579157,exhalation,P004
97,left,0.05,2025-11-30 19:41:15.954925,2025-11-30 19:41:16.544662,0.589738,hit,1764531676.544662,234.54148515823755,exhalation,P004
98,left,0.15,2025-11-30 19:41:19.954925,2025-11-30 19:41:20.524565,0.569641,hit,1764531680.524565,233.01855909688723,exhalation,P004
99,left,0.1,2025-11-30 19:41:21.954925,2025-11-30 19:41:22.529293,0.574368,hit,1764531682.529293,98.41214963806316,exhalation,P004
100,left,0.05,2025-11-30 19:41:26.954925,2025-11-30 19:41:27.569643,0.614718,hit,1764531687.569643,129.46023882514814,exhalation,P004
101,left,0.1,2025-11-30 19:41:33.954925,2025-11-30 19:41:34.588401,0.633476,hit,1764531694.5884008,152.26935078805397,exhalation,P004
102,left,0.1,2025-11-30 19:41:35.954925,2025-11-30 19:41:36.566857,0.611932,hit,1764531696.5668569,267.0474377038662,exhalation,P004
103,right,0.15,2025-11-30 19:41:42.954925,2025-11-30 19:41:43.572061,0.617137,hit,1764531703.5720608,146.5253640609206,exhalation,P004
104,right,0.1,2025-11-30 19:41:49.954925,2025-11-30 19:41:50.778603,0.823678,hit,1764531710.778603,216.0064028956112,exhalation,P004
105,right,0.1,2025-11-30 19:41:56.954925,2025-11-30 19:41:57.580335,0.62541,hit,1764531717.5803351,247.69702370008852,exhalation,P004
106,right,0.1,2025-11-30 19:42:03.954925,2025-11-30 19:42:04.603169,0.648244,hit,1764531724.603169,74.96511188847609,inhalation,P004
107,right,0.05,2025-11-30 19:42:05.954925,2025-11-30 19:42:06.586984,0.63206,hit,1764531726.586984,202.3874702827456,exhalation,P004
108,left,0.05,2025-11-30 19:42:12.954925,2025-11-30 19:42:13.584137,0.629213,hit,1764531733.584137,109.06255951189208,exhalation,P004
109,left,0.15,2025-11-30 19:42:16.954925,2025-11-30 19:42:17.582959,0.628035,hit,1764531737.5829592,77.77159778733858,inhalation,P004
110,left,0.15,2025-11-30 19:42:18.954925,2025-11-30 19:42:19.543404,0.588479,hit,1764531739.543404,224.28526244651889,exhalation,P004
111,left,0.15,2025-11-30 19:42:23.954925,2025-11-30 19:42:24.557658,0.602733,hit,1764531744.5576582,90.0,inhalation,P004
112,left,0.05,2025-11-30 19:42:27.954925,2025-11-30 19:42:28.536043,0.581118,hit,1764531748.536043,78.0591710651961,inhalation,P004
113,left,0.05,2025-11-30 19:42:29.954925,2025-11-30 19:42:30.533825,0.5789,hit,1764531750.533825,245.33001245194544,exhalation,P004
114,left,0.15,2025-11-30 19:42:33.954925,2025-11-30 19:42:34.530492,0.575567,hit,1764531754.5304918,206.5497530786328,exhalation,P004
115,left,0.05,2025-11-30 19:42:38.954925,2025-11-30 19:42:39.553980,0.599055,hit,1764531759.55398,223.55536849396296,exhalation,P004
116,right,0.05,2025-11-30 19:42:45.954925,2025-11-30 19:42:46.581147,0.626222,hit,1764531766.581147,323.01666322806403,inhalation,P004
117,right,0.05,2025-11-30 19:42:52.954925,2025-11-30 19:42:53.568128,0.613204,hit,1764531773.568128,155.13489219073142,exhalation,P004
118,right,0.05,2025-11-30 19:42:54.954925,2025-11-30 19:42:55.537647,0.582722,hit,1764531775.537647,241.71228345923143,exhalation,P004
119,left,0.05,2025-11-30 19:43:01.954925,2025-11-30 19:43:02.569270,0.614346,hit,1764531782.56927,90.0,inhalation,P004
120,left,0.1,2025-11-30 19:43:08.954925,2025-11-30 19:43:09.624112,0.669187,hit,1764531789.624112,153.69861323681897,exhalation,P004
121,right,0.1,2025-11-30 19:43:10.954925,2025-11-30 19:43:11.553751,0.598827,hit,1764531791.553751,250.25693739840287,exhalation,P004
122,left,0.05,2025-11-30 19:43:17.954925,2025-11-30 19:43:18.612607,0.657683,hit,1764531798.612607,245.7898013319706,exhalation,P004
123,left,0.1,2025-11-30 19:43:19.954925,2025-11-30 19:43:20.547185,0.592261,hit,1764531800.547185,77.60494252480692,inhalation,P004
124,right,0.1,2025-11-30 19:43:26.954925,2025-11-30 19:43:27.588830,0.633905,hit,1764531807.58883,178.84735485336537,exhalation,P004
125,left,0.1,2025-11-30 19:43:30.954925,2025-11-30 19:43:31.560271,0.605346,hit,1764531811.560271,97.0567550821023,exhalation,P004
126,right,0.1,2025-11-30 19:43:32.954925,2025-11-30 19:43:33.520501,0.565576,hit,1764531813.520501,241.1509089083589,exhalation,P004
1,right,0.15,2025-12-01 09:18:05.737408,2025-12-01 09:18:06.437691,0.700283,hit,1764580686.437691,295.7671238619791,inhalation,P005
2,right,0.05,2025-12-01 09:18:09.737408,2025-12-01 09:18:10.159384,0.421976,hit,1764580690.159384,49.360625243176855,inhalation,P005
3,left,0.1,2025-12-01 09:18:13.737408,2025-12-01 09:18:14.200853,0.463445,hit,1764580694.200853,166.01573804717654,exhalation,P005
4,right,0.15,2025-12-01 09:18:15.737408,2025-12-01 09:18:16.195755,0.458347,hit,1764580696.195755,36.872396202312586,inhalation,P005
5,right,0.05,2025-12-01 09:18:22.737408,2025-12-01 09:18:23.269731,0.532323,hit,1764580703.269731,106.73405172748672,exhalation,P005
6,right,0.1,2025-12-01 09:18:27.737408,2025-12-01 09:18:28.172680,0.435272,hit,1764580708.17268,224.7564955683142,exhalation,P005
7,left,0.15,2025-12-01 09:18:31.737408,2025-12-01 09:18:32.183909,0.446501,hit,1764580712.1839092,247.03615686669195,exhalation,P005
8,right,0.05,2025-12-01 09:18:38.737408,2025-12-01 09:18:39.218387,0.48098,hit,1764580719.218387,261.3774505823619,exhalation,P005
9,right,0.1,2025-12-01 09:18:45.737408,2025-12-01 09:18:46.169196,0.431788,hit,1764580726.169196,303.347012464702,inhalation,P005
10,left,0.1,2025-12-01 09:18:50.737408,2025-12-01 09:18:51.175603,0.438196,hit,1764580731.175603,190.6975541299795,exhalation,P005
11,left,0.1,2025-12-01 09:18:54.737408,2025-12-01 09:18:55.153399,0.415991,hit,1764580735.153399,299.9732154264201,inhalation,P005
12,left,0.15,2025-12-01 09:18:58.737408,2025-12-01 09:18:59.149655,0.412247,hit,1764580739.149655,61.49568789721627,inhalation,P005
13,left,0.15,2025-12-01 09:19:05.737408,2025-12-01 09:19:06.198442,0.461034,hit,1764580746.198442,153.6535325063657,exhalation,P005
14,right,0.15,2025-12-01 09:19:10.737408,2025-12-01 09:19:11.177016,0.439609,hit,1764580751.177016,36.17846103926314,inhalation,P005
15,left,0.1,2025-12-01 09:19:17.737408,2025-12-01 09:19:18.164560,0.427153,hit,1764580758.1645598,139.41667568967927,exhalation,P005
16,left,0.05,2025-12-01 09:19:22.737408,2025-12-01 09:19:23.208505,0.471097,hit,1764580763.2085052,240.2982976113373,exhalation,P005
17,left,0.1,2025-12-01 09:19:24.737408,2025-12-01 09:19:25.183125,0.445718,hit,1764580765.183125,136.62253608168223,exhalation,P005
18,right,0.15,2025-12-01 09:19:29.737408,2025-12-01 09:19:30.219695,0.482287,hit,1764580770.219695,337.8725170127997,inhalation,P005
19,left,0.1,2025-12-01 09:19:33.737408,2025-12-01 09:19:34.150728,0.41332,hit,1764580774.150728,138.61426197979114,exhalation,P005
20,right,0.1,2025-12-01 09:19:38.737408,2025-12-01 09:19:39.195574,0.458166,hit,1764580779.195574,352.3704935091575,inhalation,P005
21,right,0.1,2025-12-01 09:19:40.737408,2025-12-01 09:19:41.190554,0.453147,hit,1764580781.190554,204.45277723542063,exhalation,P005
22,right,0.15,2025-12-01 09:19:42.737408,2025-12-01 09:19:43.226121,0.488714,hit,1764580783.226121,58.41556393747999,inhalation,P005
23,left,0.15,2025-12-01 09:19:44.737408,2025-12-01 09:19:45.155355,0.417948,hit,1764580785.155355,206.3600195717245,exhalation,P005
24,right,0.05,2025-12-01 09:19:51.737408,2025-12-01 09:19:52.193040,0.455632,hit,1764580792.19304,237.77278772123188,exhalation,P005
25,left,0.15,2025-12-01 09:19:56.737408,2025-12-01 09:19:57.188405,0.450997,hit,1764580797.188405,118.00830601620102,exhalation,P005
26,left,0.1,2025-12-01 09:20:00.737408,2025-12-01 09:20:01.157920,0.420512,hit,1764580801.15792,180.4468273607352,exhalation,P005
27,right,0.15,2025-12-01 09:20:02.737408,2025-12-01 09:20:03.168283,0.430875,hit,1764580803.168283,49.47351708162682,inhalation,P005
28,right,0.15,2025-12-01 09:20:04.737408,2025-12-01 09:20:05.195796,0.458388,hit,1764580805.195796,270.0,inhalation,P005
29,left,0.05,2025-12-01 09:20:08.737408,2025-12-01 09:20:09.154729,0.417321,hit,1764580809.154729,352.3490130099449,inhalation,P005
30,right,0.05,2025-12-01 09:20:15.737408,2025-12-01 09:20:16.210231,0.472823,hit,1764580816.210231,132.8484135175261,exhalation,P005
31,left,0.05,2025-12-01 09:20:22.737408,2025-12-01 09:20:23.177030,0.439622,hit,1764580823.1770298,171.63379311664212,exhalation,P005
32,right,0.05,2025-12-01 09:20:29.737408,2025-12-01 09:20:30.230142,0.492735,hit,1764580830.230142,90.0,inhalation,P005
33,right,0.05,2025-12-01 09:20:31.737408,2025-12-01 09:20:32.183042,0.445634,hit,1764580832.183042,233.0557348004388,exhalation,P005
34,right,0.15,2025-12-01 09:20:36.737408,2025-12-01 09:20:37.180741,0.443333,hit,1764580837.180741,61.37854311138278,inhalation,P005
35,right,0.05,2025-12-01 09:20:38.737408,2025-12-01 09:20:39.179587,0.44218,hit,1764580839.1795871,244.617164048323,exhalation,P005
36,right,0.15,2025-12-01 09:20:42.737408,2025-12-01 09:20:43.166612,0.429204,hit,1764580843.166612,52.31302832244012,inhalation,P005
37,left,0.1,2025-12-01 09:20:47.737408,2025-12-01 09:20:48.173002,0.435594,hit,1764580848.173002,245.245020049779,exhalation,P005
38,left,0.1,2025-12-01 09:20:51.737408,2025-12-01 09:20:52.186140,0.448732,hit,1764580852.1861398,44.845126566148224,inhalation,P005
39,right,0.15,2025-12-01 09:20:58.737408,2025-12-01 09:20:59.365074,0.627667,hit,1764580859.365074,143.7106092220828,exhalation,P005
40,right,0.05,2025-12-01 09:21:05.737408,2025-12-01 09:21:06.305121,0.567713,hit,1764580866.305121,215.55501949610385,exhalation,P005
41,left,0.15,2025-12-01 09:21:09.737408,2025-12-01 09:21:10.280165,0.542758,hit,1764580870.2801652,305.55754846104725,inhalation,P005
42,left,0.05,2025-12-01 09:21:14.737408,2025-12-01 09:21:15.391620,0.654212,hit,1764580875.3916202,97.10352444464743,exhalation,P005
43,left,0.1,2025-12-01 09:21:19.737408,2025-12-01 09:21:20.301891,0.564484,hit,1764580880.301891,168.79288722741953,exhalation,P005
44,left,0.15,2025-12-01 09:21:26.737408,2025-12-01 09:21:27.337920,0.600513,hit,1764580887.33792,205.9412914766753,exhalation,P005
45,left,0.1,2025-12-01 09:21:28.737408,2025-12-01 09:21:29.288690,0.551282,hit,1764580889.28869,101.25538740244887,exhalation,P005
46,right,0.1,2025-12-01 09:21:33.737408,2025-12-01 09:21:34.318444,0.581036,hit,1764580894.318444,324.65950973044755,inhalation,P005
47,left,0.1,2025-12-01 09:21:35.737408,2025-12-01 09:21:36.271004,0.533596,hit,1764580896.271004,190.9071628166724,exhalation,P005
48,left,0.05,2025-12-01 09:21:40.737408,2025-12-01 09:21:41.303278,0.565871,hit,1764580901.303278,90.0,inhalation,P005
49,right,0.1,2025-12-01 09:21:42.737408,2025-12-01 09:21:43.256292,0.518884,hit,1764580903.256292,310.4289097457409,inhalation,P005
50,right,0.1,2025-12-01 09:21:49.737408,2025-12-01 09:21:50.359992,0.622584,hit,1764580910.359992,124.07556698348608,exhalation,P005
51,right,0.05,2025-12-01 09:21:56.737408,2025-12-01 09:21:57.344280,0.606872,hit,1764580917.34428,65.01832485069178,inhalation,P005
52,right,0.05,2025-12-01 09:22:00.737408,2025-12-01 09:22:01.257174,0.519767,hit,1764580921.257174,131.8551930681021,exhalation,P005
53,left,0.15,2025-12-01 09:22:04.737408,2025-12-01 09:22:05.267248,0.52984,hit,1764580925.2672482,192.44978148316903,exhalation,P005
54,left,0.05,2025-12-01 09:22:09.737408,2025-12-01 09:22:10.524374,0.786967,hit,1764580930.524374,53.89873404026571,inhalation,P005
55,right,0.05,2025-12-01 09:22:11.737408,2025-12-01 09:22:12.330656,0.593249,hit,1764580932.330656,305.26745658149787,inhalation,P005
56,right,0.15,2025-12-01 09:22:16.737408,2025-12-01 09:22:17.303993,0.566585,hit,1764580937.303993,186.05314833208024,exhalation,P005
57,right,0.1,2025-12-01 09:22:18.737408,2025-12-01 09:22:19.310182,0.572774,hit,1764580939.310182,90.0,inhalation,P005
58,right,0.05,2025-12-01 09:22:23.737408,2025-12-01 09:22:24.377847,0.640439,hit,1764580944.377847,105.3046423156925,exhalation,P005
59,right,0.05,2025-12-01 09:22:27.737408,2025-12-01 09:22:28.375303,0.637895,hit,1764580948.375303,221.02570164815205,exhalation,P005
60,right,0.05,2025-12-01 09:22:32.737408,2025-12-01 09:22:33.399775,0.662368,hit,1764580953.399775,131.70983536271723,exhalation,P005
61,right,0.1,2025-12-01 09:22:34.737408,2025-12-01 09:22:35.295255,0.557848,hit,1764580955.295255,249.8356944377126,exhalation,P005
62,left,0.15,2025-12-01 09:22:39.737408,2025-12-01 09:22:40.387498,0.650091,hit,1764580960.387498,186.6908362870604,exhalation,P005
63,left,0.1,2025-12-01 09:22:41.737408,2025-12-01 09:22:42.295969,0.558561,hit,1764580962.295969,64.85982394240085,inhalation,P005
64,right,0.1,2025-12-01 09:22:46.737408,2025-12-01 09:22:47.352680,0.615273,hit,1764580967.35268,314.26832627946175,inhalation,P005
65,left,0.15,2025-12-01 09:22:51.737408,2025-12-01 09:22:52.408999,0.671591,hit,1764580972.408999,182.30673907608545,exhalation,P005
66,left,0.15,2025-12-01 09:22:58.737408,2025-12-01 09:22:59.453158,0.715751,hit,1764580979.453158,308.82486852089846,inhalation,P005
67,right,0.05,2025-12-01 09:23:03.737408,2025-12-01 09:23:04.427327,0.68992,hit,1764580984.427327,157.8292160000476,exhalation,P005
68,right,0.1,2025-12-01 09:23:05.737408,2025-12-01 09:23:06.432608,0.6952,hit,1764580986.432608,46.05455322872024,inhalation,P005
69,right,0.1,2025-12-01 09:23:12.737408,2025-12-01 09:23:13.364001,0.626593,hit,1764580993.364001,191.23977510614912,exhalation,P005
70,left,0.1,2025-12-01 09:23:14.737408,2025-12-01 09:23:15.393408,0.656,hit,1764580995.393408,72.53922707637145,inhalation,P005
71,left,0.15,2025-12-01 09:23:16.737408,2025-12-01 09:23:17.299205,0.561797,hit,1764580997.299205,246.6446627624589,exhalation,P005
72,right,0.15,2025-12-01 09:23:21.737408,2025-12-01 09:23:22.361870,0.624462,hit,1764581002.36187,198.0491848179037,exhalation,P005
73,left,0.15,2025-12-01 09:23:28.737408,2025-12-01 09:23:29.487400,0.749992,hit,1764581009.4874,330.97728570314723,inhalation,P005
74,right,0.15,2025-12-01 09:23:30.737408,2025-12-01 09:23:31.330012,0.592604,hit,1764581011.3300118,233.36148430448972,exhalation,P005
75,left,0.15,2025-12-01 09:23:32.737408,2025-12-01 09:23:33.298557,0.561149,hit,1764581013.298557,167.08454889176156,exhalation,P005
76,left,0.05,2025-12-01 09:23:34.737408,2025-12-01 09:23:35.287479,0.550071,hit,1764581015.287479,90.0,inhalation,P005
77,left,0.15,2025-12-01 09:23:41.737408,2025-12-01 09:23:42.406674,0.669267,hit,1764581022.406674,192.26691375353084,exhalation,P005
78,right,0.15,2025-12-01 09:23:48.737408,2025-12-01 09:23:49.529185,0.791777,hit,1764581029.529185,347.1091507805026,inhalation,P005
79,right,0.15,2025-12-01 09:23:53.737408,2025-12-01 09:23:54.335432,0.598024,hit,1764581034.335432,197.7595719171385,exhalation,P005
80,left,0.05,2025-12-01 09:23:57.737408,2025-12-01 09:23:58.273630,0.536223,hit,1764581038.27363,302.5241565863963,inhalation,P005
81,left,0.15,2025-12-01 09:24:04.737408,2025-12-01 09:24:05.368062,0.630655,hit,1764581045.368062,138.57219013414522,exhalation,P005
82,left,0.05,2025-12-01 09:24:08.737408,2025-12-01 09:24:09.333349,0.595941,hit,1764581049.3333492,240.9032870729016,exhalation,P005
83,right,0.1,2025-12-01 09:24:15.737408,2025-12-01 09:24:16.355276,0.617868,hit,1764581056.355276,72.08537934662343,inhalation,P005
84,left,0.1,2025-12-01 09:24:20.737408,2025-12-01 09:24:21.348996,0.611588,hit,1764581061.3489962,270.0,inhalation,P005
85,right,0.15,2025-12-01 09:24:24.737408,2025-12-01 09:24:25.319665,0.582257,hit,1764581065.319665,358.18382478880665,inhalation,P005
86,left,0.05,2025-12-01 09:24:31.737408,2025-12-01 09:24:32.441485,0.704077,hit,1764581072.4414852,15.506698137609249,inhalation,P005
87,left,0.05,2025-12-01 09:24:36.737408,2025-12-01 09:24:37.322882,0.585474,hit,1764581077.322882,228.26455351637213,exhalation,P005
88,right,0.1,2025-12-01 09:24:38.737408,2025-12-01 09:24:39.328217,0.59081,hit,1764581079.328217,145.76298577146207,exhalation,P005
89,right,0.15,2025-12-01 09:24:45.737408,2025-12-01 09:24:46.357989,0.620581,hit,1764581086.357989,234.07665408134383,exhalation,P005
90,right,0.1,2025-12-01 09:24:47.737408,2025-12-01 09:24:48.313628,0.57622,hit,1764581088.313628,134.10761852597005,exhalation,P005
91,left,0.05,2025-12-01 09:24:49.737408,2025-12-01 09:24:50.346858,0.60945,hit,1764581090.346858,25.80844699199207,inhalation,P005
92,right,0.15,2025-12-01 09:24:54.737408,2025-12-01 09:24:55.321703,0.584295,hit,1764581095.321703,244.1499998916712,exhalation,P005
93,left,0.05,2025-12-01 09:25:01.737408,2025-12-01 09:25:02.407836,0.670428,hit,1764581102.407836,97.24279255022375,exhalation,P005
94,right,0.05,2025-12-01 09:25:05.737408,2025-12-01 09:25:06.332554,0.595146,hit,1764581106.332554,221.2629176310016,exhalation,P005
95,right,0.15,2025-12-01 09:25:07.737408,2025-12-01 09:25:08.319782,0.582374,hit,1764581108.3197818,95.92261506214224,exhalation,P005
96,right,0.15,2025-12-01 09:25:09.737408,2025-12-01 09:25:10.294459,0.557052,hit,1764581110.2944589,15.947052313775202,inhalation,P005
97,left,0.05,2025-12-01 09:25:14.737408,2025-12-01 09:25:15.338696,0.601288,hit,1764581115.338696,205.25308641902663,exhalation,P005
98,left,0.15,2025-12-01 09:25:18.737408,2025-12-01 09:25:19.353455,0.616048,hit,1764581119.353455,323.6871897709023,inhalation,P005
99,left,0.1,2025-12-01 09:25:20.737408,2025-12-01 09:25:21.278252,0.540844,hit,1764581121.278252,199.86363427247707,exhalation,P005
100,left,0.05,2025-12-01 09:25:25.737408,2025-12-01 09:25:26.305539,0.568132,hit,1764581126.3055391,102.36023004668264,exhalation,P005
101,left,0.1,2025-12-01 09:25:32.737408,2025-12-01 09:25:33.374544,0.637136,hit,1764581133.374544,198.2028785149452,exhalation,P005
102,left,0.1,2025-12-01 09:25:34.737408,2025-12-01 09:25:35.342952,0.605544,hit,1764581135.342952,120.612553260782,exhalation,P005
103,right,0.15,2025-12-01 09:25:41.737408,2025-12-01 09:25:42.300763,0.563356,hit,1764581142.300763,199.11666957642552,exhalation,P005
104,right,0.1,2025-12-01 09:25:48.737408,2025-12-01 09:25:49.399469,0.662061,hit,1764581149.3994691,349.0737886013417,inhalation,P005
105,right,0.1,2025-12-01 09:25:55.737408,2025-12-01 09:25:56.353176,0.615769,hit,1764581156.353176,120.59983636258217,exhalation,P005
106,right,0.1,2025-12-01 09:26:02.737408,2025-12-01 09:26:03.304796,0.567389,hit,1764581163.304796,206.32945427935448,exhalation,P005
107,right,0.05,2025-12-01 09:26:04.737408,2025-12-01 09:26:05.349291,0.611884,hit,1764581165.349291,117.10770015825896,exhalation,P005
108,left,0.05,2025-12-01 09:26:11.737408,2025-12-01 09:26:12.399838,0.66243,hit,1764581172.399838,237.3303414869092,exhalation,P005
109,left,0.15,2025-12-01 09:26:15.737408,2025-12-01 09:26:16.330776,0.593368,hit,1764581176.330776,15.718142319298124,inhalation,P005
110,left,0.15,2025-12-01 09:26:17.737408,2025-12-01 09:26:18.397282,0.659875,hit,1764581178.397282,258.6411696383757,exhalation,P005
111,left,0.15,2025-12-01 09:26:22.737408,2025-12-01 09:26:23.325358,0.58795,hit,1764581183.3253582,172.18052777174995,exhalation,P005
112,left,0.05,2025-12-01 09:26:26.737408,2025-12-01 09:26:27.301744,0.564336,hit,1764581187.3017442,242.98956559625483,exhalation,P005
113,left,0.05,2025-12-01 09:26:28.737408,2025-12-01 09:26:29.316278,0.578871,hit,1764581189.316278,156.0944470574555,exhalation,P005
114,left,0.15,2025-12-01 09:26:32.737408,2025-12-01 09:26:33.353918,0.61651,hit,1764581193.3539178,270.0,inhalation,P005
115,left,0.05,2025-12-01 09:26:37.737408,2025-12-01 09:26:38.335694,0.598287,hit,1764581198.335694,188.33808195799747,exhalation,P005
116,right,0.05,2025-12-01 09:26:44.737408,2025-12-01 09:26:45.356623,0.619215,hit,1764581205.3566232,270.0,inhalation,P005
117,right,0.05,2025-12-01 09:26:51.737408,2025-12-01 09:26:52.339014,0.601606,hit,1764581212.3390138,99.47896510398984,exhalation,P005
118,right,0.05,2025-12-01 09:26:53.737408,2025-12-01 09:26:54.278764,0.541356,hit,1764581214.278764,303.0387222700817,inhalation,P005
119,left,0.05,2025-12-01 09:27:00.737408,2025-12-01 09:27:01.345785,0.608377,hit,1764581221.3457851,120.04694069856755,exhalation,P005
120,left,0.1,2025-12-01 09:27:07.737408,2025-12-01 09:27:08.398863,0.661455,hit,1764581228.398863,229.32013873075715,exhalation,P005
121,right,0.1,2025-12-01 09:27:09.737408,2025-12-01 09:27:10.320371,0.582964,hit,1764581230.320371,122.56304845201974,exhalation,P005
122,left,0.05,2025-12-01 09:27:16.737408,2025-12-01 09:27:17.417711,0.680304,hit,1764581237.417711,261.029749659751,exhalation,P005
123,left,0.1,2025-12-01 09:27:18.737408,2025-12-01 09:27:19.329605,0.592198,hit,1764581239.329605,144.9037875765579,exhalation,P005
124,right,0.1,2025-12-01 09:27:25.737408,2025-12-01 09:27:26.486055,0.748647,hit,1764581246.486055,7.081135958571281,inhalation,P005
125,left,0.1,2025-12-01 09:27:29.737408,2025-12-01 09:27:30.298250,0.560843,hit,1764581250.29825,156.79049185927886,exhalation,P005
126,right,0.1,2025-12-01 09:27:31.737408,2025-12-01 09:27:32.344532,0.607124,hit,1764581252.344532,59.2247514702517,inhalation,P005
