trial,side,volume,scheduled_timestamp_utc,response_timestamp_utc,RT_seconds,resp_status,response_ts_sec,resp_phase,resp_phase_label
1,right,0.15,2025-11-30 11:58:59.676121,2025-11-30 11:59:00.271226,0.595105,hit,1764503940.2712262,-1.0,exhalation
2,right,0.05,2025-11-30 11:59:03.676121,2025-11-30 11:59:04.190090,0.513968,hit,1764503944.19009,1.0,inhalation
3,left,0.1,2025-11-30 11:59:07.676121,2025-11-30 11:59:08.453166,0.777044,hit,1764503948.453166,1.0,inhalation
4,right,0.15,2025-11-30 11:59:09.676121,2025-11-30 11:59:10.288466,0.612345,hit,1764503950.288466,-1.0,exhalation
5,right,0.05,2025-11-30 11:59:16.676121,2025-11-30 11:59:17.256784,0.580662,hit,1764503957.256784,-1.0,exhalation
6,right,0.1,2025-11-30 11:59:21.676121,2025-11-30 11:59:22.365959,0.689838,hit,1764503962.365959,-1.0,exhalation
7,left,0.15,2025-11-30 11:59:25.676121,2025-11-30 11:59:26.136592,0.460471,hit,1764503966.136592,-1.0,exhalation
8,right,0.05,2025-11-30 11:59:32.676121,2025-11-30 11:59:33.128891,0.45277,hit,1764503973.128891,-1.0,exhalation
9,right,0.1,2025-11-30 11:59:39.676121,2025-11-30 11:59:40.175728,0.499607,hit,1764503980.175728,1.0,inhalation
10,left,0.1,2025-11-30 11:59:44.676121,2025-11-30 11:59:45.140162,0.46404,hit,1764503985.140162,-1.0,exhalation
11,left,0.1,2025-11-30 11:59:48.676121,2025-11-30 11:59:49.086743,0.410621,hit,1764503989.086743,1.0,inhalation
12,left,0.15,2025-11-30 11:59:52.676121,2025-11-30 11:59:53.088592,0.41247,hit,1764503993.0885918,1.0,inhalation
13,left,0.15,2025-11-30 11:59:59.676121,2025-11-30 12:00:00.181940,0.505819,hit,1764504000.18194,-1.0,exhalation
14,right,0.15,2025-11-30 12:00:04.676121,2025-11-30 12:00:05.141206,0.465085,hit,1764504005.141206,-1.0,exhalation
15,left,0.1,2025-11-30 12:00:11.676121,2025-11-30 12:00:12.153673,0.477551,hit,1764504012.153673,1.0,inhalation
16,left,0.05,2025-11-30 12:00:16.676121,2025-11-30 12:00:17.188755,0.512633,hit,1764504017.188755,-1.0,exhalation
17,left,0.1,2025-11-30 12:00:18.676121,2025-11-30 12:00:19.167886,0.491764,hit,1764504019.167886,1.0,inhalation
18,right,0.15,2025-11-30 12:00:23.676121,2025-11-30 12:00:24.172826,0.496704,hit,1764504024.172826,1.0,inhalation
19,left,0.1,2025-11-30 12:00:27.676121,2025-11-30 12:00:28.046402,0.370281,hit,1764504028.046402,-1.0,exhalation
20,right,0.1,2025-11-30 12:00:32.676121,2025-11-30 12:00:33.082745,0.406623,hit,1764504033.082745,-1.0,exhalation
21,right,0.1,2025-11-30 12:00:34.676121,2025-11-30 12:00:35.132186,0.456065,hit,1764504035.1321862,1.0,inhalation
22,right,0.15,2025-11-30 12:00:36.676121,2025-11-30 12:00:37.058637,0.382516,hit,1764504037.0586371,1.0,inhalation
23,left,0.15,2025-11-30 12:00:38.676121,2025-11-30 12:00:39.080846,0.404725,hit,1764504039.080846,-1.0,exhalation
24,right,0.05,2025-11-30 12:00:45.676121,2025-11-30 12:00:46.268926,0.592805,hit,1764504046.268926,-1.0,exhalation
25,left,0.15,2025-11-30 12:00:50.676121,2025-11-30 12:00:51.151711,0.47559,hit,1764504051.151711,-1.0,exhalation
26,left,0.1,2025-11-30 12:00:54.676121,2025-11-30 12:00:55.131854,0.455732,hit,1764504055.131854,-1.0,exhalation
27,right,0.15,2025-11-30 12:00:56.676121,2025-11-30 12:00:57.162061,0.48594,hit,1764504057.162061,1.0,inhalation
28,right,0.15,2025-11-30 12:00:58.676121,2025-11-30 12:00:59.098991,0.42287,hit,1764504059.0989912,-1.0,exhalation
29,left,0.05,2025-11-30 12:01:02.676121,2025-11-30 12:01:03.128125,0.452003,hit,1764504063.128125,-1.0,exhalation
30,right,0.05,2025-11-30 12:01:09.676121,2025-11-30 12:01:10.124022,0.447901,hit,1764504070.124022,1.0,inhalation
31,left,0.05,2025-11-30 12:01:16.676121,2025-11-30 12:01:17.256631,0.580509,hit,1764504077.2566311,1.0,inhalation
32,right,0.05,2025-11-30 12:01:23.676121,2025-11-30 12:01:24.203043,0.526922,hit,1764504084.203043,-1.0,exhalation
33,right,0.05,2025-11-30 12:01:25.676121,2025-11-30 12:01:26.163703,0.487582,hit,1764504086.163703,1.0,inhalation
34,right,0.15,2025-11-30 12:01:30.676121,2025-11-30 12:01:31.095321,0.419199,hit,1764504091.0953212,1.0,inhalation
35,right,0.05,2025-11-30 12:01:32.676121,2025-11-30 12:01:33.101780,0.425659,hit,1764504093.10178,-1.0,exhalation
36,right,0.15,2025-11-30 12:01:36.676121,2025-11-30 12:01:37.086775,0.410653,hit,1764504097.086775,-1.0,exhalation
37,left,0.1,2025-11-30 12:01:41.676121,2025-11-30 12:01:42.112059,0.435938,hit,1764504102.1120589,-1.0,exhalation
38,left,0.1,2025-11-30 12:01:45.676121,2025-11-30 12:01:46.122788,0.446666,hit,1764504106.1227882,-1.0,exhalation
39,right,0.15,2025-11-30 12:01:52.676121,2025-11-30 12:01:53.307678,0.631557,hit,1764504113.307678,1.0,inhalation
40,right,0.05,2025-11-30 12:01:59.676121,2025-11-30 12:02:00.215481,0.53936,hit,1764504120.215481,-1.0,exhalation
41,left,0.15,2025-11-30 12:02:03.676121,2025-11-30 12:02:04.290367,0.614246,hit,1764504124.290367,-1.0,exhalation
42,left,0.05,2025-11-30 12:02:08.676121,2025-11-30 12:02:09.240399,0.564278,hit,1764504129.2403991,-1.0,exhalation
43,left,0.1,2025-11-30 12:02:13.676121,2025-11-30 12:02:14.222984,0.546862,hit,1764504134.2229838,-1.0,exhalation
44,left,0.15,2025-11-30 12:02:20.676121,2025-11-30 12:02:21.278432,0.602311,hit,1764504141.278432,-1.0,exhalation
45,left,0.1,2025-11-30 12:02:22.676121,2025-11-30 12:02:23.209700,0.533578,hit,1764504143.2097,1.0,inhalation
46,right,0.1,2025-11-30 12:02:27.676121,2025-11-30 12:02:28.275378,0.599256,hit,1764504148.275378,-1.0,exhalation
47,left,0.1,2025-11-30 12:02:29.676121,2025-11-30 12:02:30.172009,0.495888,hit,1764504150.172009,1.0,inhalation
48,left,0.05,2025-11-30 12:02:34.676121,2025-11-30 12:02:35.219455,0.543333,hit,1764504155.219455,-1.0,exhalation
49,right,0.1,2025-11-30 12:02:36.676121,2025-11-30 12:02:37.216910,0.540788,hit,1764504157.2169101,1.0,inhalation
50,right,0.1,2025-11-30 12:02:43.676121,2025-11-30 12:02:44.245394,0.569272,hit,1764504164.245394,-1.0,exhalation
51,right,0.05,2025-11-30 12:02:50.676121,2025-11-30 12:02:51.152583,0.476461,hit,1764504171.152583,-1.0,exhalation
52,right,0.05,2025-11-30 12:02:54.676121,2025-11-30 12:02:55.193283,0.517162,hit,1764504175.193283,1.0,inhalation
53,left,0.15,2025-11-30 12:02:58.676121,2025-11-30 12:02:59.173556,0.497434,hit,1764504179.1735559,-1.0,exhalation
54,left,0.05,2025-11-30 12:03:03.676121,2025-11-30 12:03:04.203293,0.527172,hit,1764504184.2032928,-1.0,exhalation
55,right,0.05,2025-11-30 12:03:05.676121,2025-11-30 12:03:06.185499,0.509378,hit,1764504186.185499,1.0,inhalation
56,right,0.15,2025-11-30 12:03:10.676121,2025-11-30 12:03:11.152119,0.475998,hit,1764504191.152119,1.0,inhalation
57,right,0.1,2025-11-30 12:03:12.676121,2025-11-30 12:03:13.207958,0.531836,hit,1764504193.207958,1.0,inhalation
58,right,0.05,2025-11-30 12:03:17.676121,2025-11-30 12:03:18.191144,0.515022,hit,1764504198.191144,1.0,inhalation
59,right,0.05,2025-11-30 12:03:21.676121,2025-11-30 12:03:22.211191,0.535069,hit,1764504202.211191,1.0,inhalation
60,right,0.05,2025-11-30 12:03:26.676121,2025-11-30 12:03:27.218755,0.542634,hit,1764504207.218755,1.0,inhalation
61,right,0.1,2025-11-30 12:03:28.676121,2025-11-30 12:03:29.381257,0.705136,hit,1764504209.381257,-1.0,exhalation
62,left,0.15,2025-11-30 12:03:33.676121,2025-11-30 12:03:34.269990,0.593869,hit,1764504214.26999,-1.0,exhalation
63,left,0.1,2025-11-30 12:03:35.676121,2025-11-30 12:03:36.156337,0.480216,hit,1764504216.1563368,1.0,inhalation
64,right,0.1,2025-11-30 12:03:40.676121,2025-11-30 12:03:41.266831,0.590709,hit,1764504221.2668312,1.0,inhalation
65,left,0.15,2025-11-30 12:03:45.676121,2025-11-30 12:03:46.318513,0.642391,hit,1764504226.318513,-1.0,exhalation
66,left,0.15,2025-11-30 12:03:52.676121,2025-11-30 12:03:53.255736,0.579614,hit,1764504233.255736,1.0,inhalation
67,right,0.05,2025-11-30 12:03:57.676121,2025-11-30 12:03:58.212633,0.536512,hit,1764504238.2126331,1.0,inhalation
68,right,0.1,2025-11-30 12:03:59.676121,2025-11-30 12:04:00.236466,0.560344,hit,1764504240.236466,-1.0,exhalation
69,right,0.1,2025-11-30 12:04:06.676121,2025-11-30 12:04:07.286351,0.61023,hit,1764504247.2863512,1.0,inhalation
70,left,0.1,2025-11-30 12:04:08.676121,2025-11-30 12:04:09.242759,0.566637,hit,1764504249.242759,-1.0,exhalation
71,left,0.15,2025-11-30 12:04:10.676121,2025-11-30 12:04:11.198507,0.522386,hit,1764504251.198507,1.0,inhalation
72,right,0.15,2025-11-30 12:04:15.676121,2025-11-30 12:04:16.220493,0.544371,hit,1764504256.220493,-1.0,exhalation
73,left,0.15,2025-11-30 12:04:22.676121,2025-11-30 12:04:23.273612,0.597491,hit,1764504263.273612,1.0,inhalation
74,right,0.15,2025-11-30 12:04:24.676121,2025-11-30 12:04:25.188951,0.512829,hit,1764504265.188951,-1.0,exhalation
75,left,0.15,2025-11-30 12:04:26.676121,2025-11-30 12:04:27.161125,0.485004,hit,1764504267.1611252,1.0,inhalation
76,left,0.05,2025-11-30 12:04:28.676121,2025-11-30 12:04:29.295189,0.619068,hit,1764504269.295189,-1.0,exhalation
77,left,0.15,2025-11-30 12:04:35.676121,2025-11-30 12:04:36.197335,0.521214,hit,1764504276.197335,-1.0,exhalation
78,right,0.15,2025-11-30 12:04:42.676121,2025-11-30 12:04:43.192698,0.516576,hit,1764504283.192698,-1.0,exhalation
79,right,0.15,2025-11-30 12:04:47.676121,2025-11-30 12:04:48.348463,0.672341,hit,1764504288.348463,1.0,inhalation
80,left,0.05,2025-11-30 12:04:51.676121,2025-11-30 12:04:52.165915,0.489794,hit,1764504292.1659148,1.0,inhalation
81,left,0.15,2025-11-30 12:04:58.676121,2025-11-30 12:04:59.246793,0.570671,hit,1764504299.246793,-1.0,exhalation
82,left,0.05,2025-11-30 12:05:02.676121,2025-11-30 12:05:03.246144,0.570023,hit,1764504303.246144,-1.0,exhalation
83,right,0.1,2025-11-30 12:05:09.676121,2025-11-30 12:05:10.266000,0.589879,hit,1764504310.2659998,-1.0,exhalation
84,left,0.1,2025-11-30 12:05:14.676121,2025-11-30 12:05:15.158867,0.482746,hit,1764504315.158867,1.0,inhalation
85,right,0.15,2025-11-30 12:05:18.676121,2025-11-30 12:05:19.217212,0.54109,hit,1764504319.217212,1.0,inhalation
86,left,0.05,2025-11-30 12:05:25.676121,2025-11-30 12:05:26.187809,0.511687,hit,1764504326.187809,1.0,inhalation
87,left,0.05,2025-11-30 12:05:30.676121,2025-11-30 12:05:31.247056,0.570934,hit,1764504331.2470558,-1.0,exhalation
88,right,0.1,2025-11-30 12:05:32.676121,2025-11-30 12:05:33.227832,0.551711,hit,1764504333.227832,1.0,inhalation
89,right,0.15,2025-11-30 12:05:39.676121,2025-11-30 12:05:40.241143,0.565022,hit,1764504340.241143,1.0,inhalation
90,right,0.1,2025-11-30 12:05:41.676121,2025-11-30 12:05:42.233431,0.55731,hit,1764504342.233431,-1.0,exhalation
91,left,0.05,2025-11-30 12:05:43.676121,2025-11-30 12:05:44.216263,0.540142,hit,1764504344.2162628,1.0,inhalation
92,right,0.15,2025-11-30 12:05:48.676121,2025-11-30 12:05:49.285465,0.609343,hit,1764504349.285465,1.0,inhalation
93,left,0.05,2025-11-30 12:05:55.676121,2025-11-30 12:05:56.257770,0.581648,hit,1764504356.25777,1.0,inhalation
94,right,0.05,2025-11-30 12:05:59.676121,2025-11-30 12:06:00.230408,0.554287,hit,1764504360.230408,-1.0,exhalation
95,right,0.15,2025-11-30 12:06:01.676121,2025-11-30 12:06:02.292584,0.616463,hit,1764504362.292584,-1.0,exhalation
96,right,0.15,2025-11-30 12:06:03.676121,2025-11-30 12:06:04.240584,0.564463,hit,1764504364.240584,1.0,inhalation
97,left,0.05,2025-11-30 12:06:08.676121,2025-11-30 12:06:09.402986,0.726864,hit,1764504369.402986,-1.0,exhalation
98,left,0.15,2025-11-30 12:06:12.676121,2025-11-30 12:06:13.195974,0.519852,hit,1764504373.1959739,-1.0,exhalation
99,left,0.1,2025-11-30 12:06:14.676121,2025-11-30 12:06:15.201691,0.525569,hit,1764504375.201691,1.0,inhalation
100,left,0.05,2025-11-30 12:06:19.676121,2025-11-30 12:06:20.310349,0.634228,hit,1764504380.310349,-1.0,exhalation
101,left,0.1,2025-11-30 12:06:26.676121,2025-11-30 12:06:27.311520,0.635398,hit,1764504387.31152,-1.0,exhalation
102,left,0.1,2025-11-30 12:06:28.676121,2025-11-30 12:06:29.248939,0.572818,hit,1764504389.248939,1.0,inhalation
103,right,0.15,2025-11-30 12:06:35.676121,2025-11-30 12:06:36.219544,0.543423,hit,1764504396.2195442,-1.0,exhalation
104,right,0.1,2025-11-30 12:06:42.676121,2025-11-30 12:06:43.287242,0.61112,hit,1764504403.287242,-1.0,exhalation
105,right,0.1,2025-11-30 12:06:49.676121,2025-11-30 12:06:50.220857,0.544736,hit,1764504410.2208571,-1.0,exhalation
106,right,0.1,2025-11-30 12:06:56.676121,2025-11-30 12:06:57.273024,0.596903,hit,1764504417.273024,1.0,inhalation
107,right,0.05,2025-11-30 12:06:58.676121,2025-11-30 12:06:59.357353,0.681231,hit,1764504419.357353,-1.0,exhalation
108,left,0.05,2025-11-30 12:07:05.676121,2025-11-30 12:07:06.287979,0.611858,hit,1764504426.2879791,1.0,inhalation
109,left,0.15,2025-11-30 12:07:09.676121,2025-11-30 12:07:10.300233,0.624112,hit,1764504430.300233,1.0,inhalation
110,left,0.15,2025-11-30 12:07:11.676121,2025-11-30 12:07:12.270570,0.594449,hit,1764504432.27057,1.0,inhalation
111,left,0.15,2025-11-30 12:07:16.676121,2025-11-30 12:07:17.285811,0.60969,hit,1764504437.285811,1.0,inhalation
112,left,0.05,2025-11-30 12:07:20.676121,2025-11-30 12:07:21.205785,0.529664,hit,1764504441.205785,-1.0,exhalation
113,left,0.05,2025-11-30 12:07:22.676121,2025-11-30 12:07:23.305527,0.629406,hit,1764504443.305527,1.0,inhalation
114,left,0.15,2025-11-30 12:07:26.676121,2025-11-30 12:07:27.230681,0.554559,hit,1764504447.2306812,-1.0,exhalation
115,left,0.05,2025-11-30 12:07:31.676121,2025-11-30 12:07:32.314680,0.638559,hit,1764504452.31468,1.0,inhalation
116,right,0.05,2025-11-30 12:07:38.676121,2025-11-30 12:07:39.279787,0.603666,hit,1764504459.279787,1.0,inhalation
117,right,0.05,2025-11-30 12:07:45.676121,2025-11-30 12:07:46.326217,0.650095,hit,1764504466.326217,-1.0,exhalation
118,right,0.05,2025-11-30 12:07:47.676121,2025-11-30 12:07:48.276896,0.600775,hit,1764504468.276896,1.0,inhalation
119,left,0.05,2025-11-30 12:07:54.676121,2025-11-30 12:07:55.254396,0.578275,hit,1764504475.254396,1.0,inhalation
120,left,0.1,2025-11-30 12:08:01.676121,2025-11-30 12:08:02.229947,0.553826,hit,1764504482.2299469,-1.0,exhalation
121,right,0.1,2025-11-30 12:08:03.676121,2025-11-30 12:08:04.238757,0.562635,hit,1764504484.2387571,1.0,inhalation
122,left,0.05,2025-11-30 12:08:10.676121,2025-11-30 12:08:11.312337,0.636216,hit,1764504491.312337,1.0,inhalation
123,left,0.1,2025-11-30 12:08:12.676121,2025-11-30 12:08:13.277774,0.601653,hit,1764504493.277774,-1.0,exhalation
124,right,0.1,2025-11-30 12:08:19.676121,2025-11-30 12:08:20.222974,0.546853,hit,1764504500.222974,-1.0,exhalation
125,left,0.1,2025-11-30 12:08:23.676121,2025-11-30 12:08:24.263294,0.587172,hit,1764504504.263294,-1.0,exhalation
126,right,0.1,2025-11-30 12:08:25.676121,2025-11-30 12:08:26.270800,0.594678,hit,1764504506.2707999,1.0,inhalation
