trial,side,volume,scheduled_timestamp_utc,response_timestamp_utc,RT_seconds,resp_status
1,right,0.150,2025-11-30 17:45:27.129117,2025-11-30 17:45:27.734811,0.605693,hit
2,right,0.050,2025-11-30 17:45:31.129117,2025-11-30 17:45:31.671988,0.542871,hit
3,left,0.100,2025-11-30 17:45:35.129117,2025-11-30 17:45:35.589734,0.460616,hit
4,right,0.150,2025-11-30 17:45:37.129117,2025-11-30 17:45:37.650135,0.521017,hit
5,right,0.050,2025-11-30 17:45:44.129117,2025-11-30 17:45:44.596864,0.467747,hit
6,right,0.100,2025-11-30 17:45:49.129117,2025-11-30 17:45:49.610091,0.480973,hit
7,left,0.150,2025-11-30 17:45:53.129117,2025-11-30 17:45:53.610501,0.481383,hit
8,right,0.050,2025-11-30 17:46:00.129117,2025-11-30 17:46:00.659558,0.530441,hit
9,right,0.100,2025-11-30 17:46:07.129117,2025-11-30 17:46:07.758811,0.629694,hit
10,left,0.100,2025-11-30 17:46:12.129117,2025-11-30 17:46:12.676353,0.547236,hit
11,left,0.100,2025-11-30 17:46:16.129117,2025-11-30 17:46:16.731857,0.602739,hit
12,left,0.150,2025-11-30 17:46:20.129117,2025-11-30 17:46:20.729793,0.600676,hit
13,left,0.150,2025-11-30 17:46:27.129117,2025-11-30 17:46:27.629761,0.500644,hit
14,right,0.150,2025-11-30 17:46:32.129117,2025-11-30 17:46:32.552263,0.423145,hit
15,left,0.100,2025-11-30 17:46:39.129117,2025-11-30 17:46:39.545370,0.416252,hit
16,left,0.050,2025-11-30 17:46:44.129117,2025-11-30 17:46:44.619786,0.490668,hit
17,left,0.100,2025-11-30 17:46:46.129117,2025-11-30 17:46:46.744641,0.615523,hit
18,right,0.150,2025-11-30 17:46:51.129117,2025-11-30 17:46:51.608731,0.479613,hit
19,left,0.100,2025-11-30 17:46:55.129117,2025-11-30 17:46:55.659631,0.530514,hit
20,right,0.100,2025-11-30 17:47:00.129117,2025-11-30 17:47:00.539221,0.410103,hit
21,right,0.100,2025-11-30 17:47:02.129117,2025-11-30 17:47:02.711490,0.582372,hit
22,right,0.150,2025-11-30 17:47:04.129117,2025-11-30 17:47:04.574291,0.445173,hit
23,left,0.150,2025-11-30 17:47:06.129117,2025-11-30 17:47:06.558117,0.429000,hit
24,right,0.050,2025-11-30 17:47:13.129117,2025-11-30 17:47:13.595596,0.466479,hit
25,left,0.150,2025-11-30 17:47:18.129117,2025-11-30 17:47:18.613164,0.484047,hit
26,left,0.100,2025-11-30 17:47:22.129117,2025-11-30 17:47:22.595133,0.466015,hit
27,right,0.150,2025-11-30 17:47:24.129117,2025-11-30 17:47:24.606432,0.477314,hit
28,right,0.150,2025-11-30 17:47:26.129117,2025-11-30 17:47:26.555245,0.426127,hit
29,left,0.050,2025-11-30 17:47:30.129117,2025-11-30 17:47:30.561417,0.432300,hit
30,right,0.050,2025-11-30 17:47:37.129117,2025-11-30 17:47:37.665773,0.536655,hit
31,left,0.050,2025-11-30 17:47:44.129117,2025-11-30 17:47:44.657938,0.528821,hit
32,right,0.050,2025-11-30 17:47:51.129117,2025-11-30 17:47:51.665802,0.536684,hit
33,right,0.050,2025-11-30 17:47:53.129117,2025-11-30 17:47:53.685358,0.556240,hit
34,right,0.150,2025-11-30 17:47:58.129117,2025-11-30 17:47:58.609679,0.480561,hit
35,right,0.050,2025-11-30 17:48:00.129117,2025-11-30 17:48:00.626813,0.497695,hit
36,right,0.150,2025-11-30 17:48:04.129117,2025-11-30 17:48:04.681715,0.552598,hit
37,left,0.100,2025-11-30 17:48:09.129117,2025-11-30 17:48:09.776452,0.647334,hit
38,left,0.100,2025-11-30 17:48:13.129117,2025-11-30 17:48:13.685045,0.555928,hit
39,right,0.150,2025-11-30 17:48:20.129117,2025-11-30 17:48:20.857849,0.728731,hit
40,right,0.050,2025-11-30 17:48:27.129117,2025-11-30 17:48:27.761030,0.631912,hit
41,left,0.150,2025-11-30 17:48:31.129117,2025-11-30 17:48:31.828264,0.699146,hit
42,left,0.050,2025-11-30 17:48:36.129117,2025-11-30 17:48:36.849601,0.720484,hit
43,left,0.100,2025-11-30 17:48:41.129117,2025-11-30 17:48:41.798648,0.669531,hit
44,left,0.150,2025-11-30 17:48:48.129117,2025-11-30 17:48:48.781747,0.652630,hit
45,left,0.100,2025-11-30 17:48:50.129117,2025-11-30 17:48:50.770119,0.641002,hit
46,right,0.100,2025-11-30 17:48:55.129117,2025-11-30 17:48:55.741884,0.612766,hit
47,left,0.100,2025-11-30 17:48:57.129117,2025-11-30 17:48:57.762693,0.633575,hit
48,left,0.050,2025-11-30 17:49:02.129117,2025-11-30 17:49:02.752460,0.623342,hit
49,right,0.100,2025-11-30 17:49:04.129117,2025-11-30 17:49:04.722465,0.593347,hit
50,right,0.100,2025-11-30 17:49:11.129117,2025-11-30 17:49:11.730186,0.601068,hit
51,right,0.050,2025-11-30 17:49:18.129117,2025-11-30 17:49:18.753793,0.624675,hit
52,right,0.050,2025-11-30 17:49:22.129117,2025-11-30 17:49:22.914183,0.785066,hit
53,left,0.150,2025-11-30 17:49:26.129117,2025-11-30 17:49:26.926832,0.797714,hit
54,left,0.050,2025-11-30 17:49:31.129117,2025-11-30 17:49:31.832046,0.702928,hit
55,right,0.050,2025-11-30 17:49:33.129117,2025-11-30 17:49:33.764565,0.635447,hit
56,right,0.150,2025-11-30 17:49:38.129117,2025-11-30 17:49:38.767069,0.637952,hit
57,right,0.100,2025-11-30 17:49:40.129117,2025-11-30 17:49:40.816646,0.687529,hit
58,right,0.050,2025-11-30 17:49:45.129117,2025-11-30 17:49:45.932010,0.802893,hit
59,right,0.050,2025-11-30 17:49:49.129117,2025-11-30 17:49:49.831308,0.702191,hit
60,right,0.050,2025-11-30 17:49:54.129117,2025-11-30 17:49:54.787146,0.658028,hit
61,right,0.100,2025-11-30 17:49:56.129117,2025-11-30 17:49:56.838764,0.709646,hit
62,left,0.150,2025-11-30 17:50:01.129117,2025-11-30 17:50:01.809740,0.680622,hit
63,left,0.100,2025-11-30 17:50:03.129117,2025-11-30 17:50:03.900193,0.771076,hit
64,right,0.100,2025-11-30 17:50:08.129117,2025-11-30 17:50:09.004215,0.875097,hit
65,left,0.150,2025-11-30 17:50:13.129117,2025-11-30 17:50:14.055323,0.926205,hit
66,left,0.150,2025-11-30 17:50:20.129117,2025-11-30 17:50:20.876108,0.746990,hit
67,right,0.050,2025-11-30 17:50:25.129117,2025-11-30 17:50:25.938180,0.809062,hit
68,right,0.100,2025-11-30 17:50:27.129117,2025-11-30 17:50:27.927988,0.798871,hit
69,right,0.100,2025-11-30 17:50:34.129117,2025-11-30 17:50:34.886361,0.757244,hit
70,left,0.100,2025-11-30 17:50:36.129117,2025-11-30 17:50:36.994066,0.864948,hit
71,left,0.150,2025-11-30 17:50:38.129117,2025-11-30 17:50:38.794139,0.665021,hit
72,right,0.150,2025-11-30 17:50:43.129117,2025-11-30 17:50:43.779640,0.650523,hit
73,none,,,2025-11-30 17:50:44.006573,,false_positive
73,left,0.150,2025-11-30 17:50:50.129117,2025-11-30 17:50:50.785681,0.656564,hit
74,right,0.150,2025-11-30 17:50:52.129117,2025-11-30 17:50:53.024130,0.895012,hit
75,left,0.150,2025-11-30 17:50:54.129117,2025-11-30 17:50:54.923513,0.794396,hit
76,left,0.050,2025-11-30 17:50:56.129117,2025-11-30 17:50:56.890882,0.761764,hit
77,left,0.150,2025-11-30 17:51:03.129117,2025-11-30 17:51:03.935570,0.806452,hit
78,right,0.150,2025-11-30 17:51:10.129117,2025-11-30 17:51:10.775181,0.646064,hit
79,right,0.150,2025-11-30 17:51:15.129117,2025-11-30 17:51:15.802084,0.672967,hit
80,left,0.050,2025-11-30 17:51:19.129117,2025-11-30 17:51:20.614716,1.485598,hit
81,left,0.150,2025-11-30 17:51:26.129117,2025-11-30 17:51:26.910573,0.781455,hit
82,left,0.050,2025-11-30 17:51:30.129117,2025-11-30 17:51:31.041553,0.912436,hit
83,right,0.100,2025-11-30 17:51:37.129117,2025-11-30 17:51:37.874151,0.745034,hit
84,left,0.100,2025-11-30 17:51:42.129117,2025-11-30 17:51:42.934770,0.805653,hit
85,right,0.150,2025-11-30 17:51:46.129117,2025-11-30 17:51:46.975091,0.845973,hit
86,left,0.050,2025-11-30 17:51:53.129117,2025-11-30 17:51:53.956224,0.827107,hit
87,left,0.050,2025-11-30 17:51:58.129117,2025-11-30 17:51:58.862533,0.733416,hit
88,right,0.100,2025-11-30 17:52:00.129117,2025-11-30 17:52:00.803862,0.674744,hit
89,right,0.150,2025-11-30 17:52:07.129117,2025-11-30 17:52:07.822938,0.693821,hit
90,right,0.100,2025-11-30 17:52:09.129117,2025-11-30 17:52:09.791177,0.662059,hit
91,left,0.050,2025-11-30 17:52:11.129117,2025-11-30 17:52:11.810337,0.681219,hit
92,none,,,2025-11-30 17:52:13.669906,,false_positive
92,right,0.150,2025-11-30 17:52:16.129117,2025-11-30 17:52:16.834342,0.705225,hit
93,left,0.050,2025-11-30 17:52:23.129117,2025-11-30 17:52:23.825250,0.696132,hit
94,right,0.050,2025-11-30 17:52:27.129117,2025-11-30 17:52:27.855503,0.726385,hit
95,right,0.150,2025-11-30 17:52:29.129117,2025-11-30 17:52:29.798933,0.669815,hit
96,right,0.150,2025-11-30 17:52:31.129117,2025-11-30 17:52:31.962909,0.833792,hit
97,left,0.050,2025-11-30 17:52:36.129117,2025-11-30 17:52:36.831833,0.702715,hit
98,left,0.150,2025-11-30 17:52:40.129117,2025-11-30 17:52:40.855707,0.726590,hit
99,left,0.100,2025-11-30 17:52:42.129117,2025-11-30 17:52:42.987887,0.858770,hit
100,left,0.050,2025-11-30 17:52:47.129117,2025-11-30 17:52:48.106532,0.977414,hit
101,left,0.100,2025-11-30 17:52:54.129117,2025-11-30 17:52:54.970658,0.841540,hit
102,left,0.100,2025-11-30 17:52:56.129117,2025-11-30 17:52:56.893567,0.764449,hit
103,right,0.150,2025-11-30 17:53:03.129117,2025-11-30 17:53:03.847075,0.717958,hit
104,right,0.100,2025-11-30 17:53:10.129117,2025-11-30 17:53:10.890292,0.761175,hit
105,right,0.100,2025-11-30 17:53:17.129117,2025-11-30 17:53:17.877954,0.748837,hit
106,right,0.100,2025-11-30 17:53:24.129117,2025-11-30 17:53:24.908417,0.779299,hit
107,right,0.050,2025-11-30 17:53:26.129117,2025-11-30 17:53:26.867983,0.738866,hit
108,left,0.050,2025-11-30 17:53:33.129117,2025-11-30 17:53:33.921142,0.792025,hit
109,left,0.150,2025-11-30 17:53:37.129117,2025-11-30 17:53:37.825360,0.696242,hit
110,left,0.150,2025-11-30 17:53:39.129117,2025-11-30 17:53:39.897976,0.768859,hit
111,left,0.150,2025-11-30 17:53:44.129117,2025-11-30 17:53:45.109758,0.980640,hit
112,left,0.050,2025-11-30 17:53:48.129117,2025-11-30 17:53:48.914309,0.785192,hit
113,left,0.050,2025-11-30 17:53:50.129117,2025-11-30 17:53:50.918970,0.789853,hit
114,left,0.150,2025-11-30 17:53:54.129117,2025-11-30 17:53:54.875375,0.746257,hit
115,left,0.050,2025-11-30 17:53:59.129117,2025-11-30 17:53:59.890578,0.761461,hit
116,right,0.050,2025-11-30 17:54:06.129117,2025-11-30 17:54:06.899213,0.770095,hit
117,right,0.050,2025-11-30 17:54:13.129117,2025-11-30 17:54:13.906307,0.777190,hit
118,right,0.050,2025-11-30 17:54:15.129117,2025-11-30 17:54:15.912382,0.783264,hit
119,left,0.050,2025-11-30 17:54:22.129117,2025-11-30 17:54:22.889779,0.760661,hit
120,left,0.100,2025-11-30 17:54:29.129117,2025-11-30 17:54:29.891230,0.762113,hit
121,right,0.100,2025-11-30 17:54:31.129117,2025-11-30 17:54:31.994444,0.865326,hit
122,left,0.050,2025-11-30 17:54:38.129117,2025-11-30 17:54:39.077103,0.947986,hit
123,left,0.100,2025-11-30 17:54:40.129117,2025-11-30 17:54:41.181964,1.052846,hit
124,right,0.100,2025-11-30 17:54:47.129117,2025-11-30 17:54:47.978247,0.849130,hit
125,left,0.100,2025-11-30 17:54:51.129117,2025-11-30 17:54:51.896448,0.767330,hit
126,right,0.100,2025-11-30 17:54:53.129117,2025-11-30 17:54:53.973958,0.844841,hit
