trial,side,utc_timestamp,RT_seconds,resp_status
1,left,2025-12-17 15:08:49.090557+00:00,0.643826,hit
2,left,2025-12-17 15:08:53.090194+00:00,0.551899,hit
3,right,2025-12-17 15:09:00.091002+00:00,0.469531,hit
4,right,2025-12-17 15:09:02.093723+00:00,0.427294,hit
5,left,2025-12-17 15:09:07.091827+00:00,0.465756,hit
6,left,2025-12-17 15:09:09.088743+00:00,0.474818,hit
7,right,2025-12-17 15:09:13.088380+00:00,0.427762,hit
8,right,2025-12-17 15:09:18.091425+00:00,0.52908,hit
9,left,2025-12-17 15:09:20.094146+00:00,0.598093,hit
10,left,2025-12-17 15:09:25.092232+00:00,0.517304,hit
11,right,2025-12-17 15:09:30.090337+00:00,0.449029,hit
12,right,2025-12-17 15:09:32.093058+00:00,0.387527,hit
13,left,2025-12-17 15:09:39.088056+00:00,0.416726,hit
14,right,2025-12-17 15:09:46.094695+00:00,0.46483,hit
15,left,2025-12-17 15:09:50.094328+00:00,0.477628,hit
16,right,2025-12-17 15:09:54.091596+00:00,0.424297,hit
17,left,2025-12-17 15:09:59.089700+00:00,0.426717,hit
18,left,2025-12-17 15:10:06.090507+00:00,0.404671,hit
19,left,2025-12-17 15:10:10.090145+00:00,0.41986,hit
20,right,2025-12-17 15:10:12.092866+00:00,0.403551,hit
21,left,2025-12-17 15:10:14.089782+00:00,0.383282,hit
22,right,2025-12-17 15:10:21.090612+00:00,0.426693,hit
23,right,2025-12-17 15:10:25.090244+00:00,0.430119,hit
24,right,2025-12-17 15:10:30.088331+00:00,0.407583,hit
25,left,2025-12-17 15:10:32.091052+00:00,0.435051,hit
26,right,2025-12-17 15:10:37.089156+00:00,0.430831,hit
27,right,2025-12-17 15:10:39.086072+00:00,0.414815,hit
28,right,2025-12-17 15:10:43.085709+00:00,0.429143,hit
29,left,2025-12-17 15:10:48.089600+00:00,0.420232,hit
30,right,2025-12-17 15:10:55.090426+00:00,0.450343,hit
31,left,2025-12-17 15:11:02.091233+00:00,0.459991,hit
32,left,2025-12-17 15:11:06.090870+00:00,0.430709,hit
33,right,2025-12-17 15:11:11.088974+00:00,0.430601,hit
34,right,2025-12-17 15:11:18.089782+00:00,0.396442,hit
35,left,2025-12-17 15:11:23.093696+00:00,0.542094,hit
36,left,2025-12-17 15:11:30.088693+00:00,0.395651,hit
37,left,2025-12-17 15:11:34.088331+00:00,0.426459,hit
38,right,2025-12-17 15:11:36.091052+00:00,0.411201,hit
39,right,2025-12-17 15:11:40.090689+00:00,0.359065,hit
40,left,2025-12-17 15:11:42.093414+00:00,0.405417,hit
41,left,2025-12-17 15:11:49.090532+00:00,0.381682,hit
42,right,2025-12-17 15:11:51.090532+00:00,0.511056,hit
43,right,2025-12-17 15:11:56.090532+00:00,0.5466,hit
44,left,2025-12-17 15:11:58.090532+00:00,0.419291,hit
45,right,2025-12-17 15:12:05.090532+00:00,0.477136,hit
46,left,2025-12-17 15:12:09.090532+00:00,0.496627,hit
47,right,2025-12-17 15:12:13.090532+00:00,0.422662,hit
48,left,2025-12-17 15:12:18.090532+00:00,0.427227,hit
49,right,2025-12-17 15:12:23.090532+00:00,0.403942,hit
50,right,2025-12-17 15:12:27.090532+00:00,0.424877,hit
51,left,2025-12-17 15:12:34.090532+00:00,0.399625,hit
52,left,2025-12-17 15:12:36.090532+00:00,0.533104,hit
53,left,2025-12-17 15:12:41.090532+00:00,0.439331,hit
54,right,2025-12-17 15:12:48.090532+00:00,0.383611,hit
55,left,2025-12-17 15:12:52.090532+00:00,0.576195,hit
56,right,2025-12-17 15:12:54.090532+00:00,0.512757,hit
57,left,2025-12-17 15:12:59.090532+00:00,0.464747,hit
58,right,2025-12-17 15:13:06.090532+00:00,0.475206,hit
59,left,2025-12-17 15:13:13.090532+00:00,0.491404,hit
60,left,2025-12-17 15:13:17.090532+00:00,0.535194,hit
61,left,2025-12-17 15:13:19.090532+00:00,0.52309,hit
62,right,2025-12-17 15:13:21.090532+00:00,0.437016,hit
63,right,2025-12-17 15:13:25.090532+00:00,0.464665,hit
64,right,2025-12-17 15:13:30.090532+00:00,0.424478,hit
65,right,2025-12-17 15:13:32.090532+00:00,0.394241,hit
66,left,2025-12-17 15:13:39.090532+00:00,0.426221,hit
67,left,2025-12-17 15:13:44.090532+00:00,0.439496,hit
68,right,2025-12-17 15:13:51.090532+00:00,0.483265,hit
69,right,2025-12-17 15:13:55.090532+00:00,0.444663,hit
70,left,2025-12-17 15:13:59.090532+00:00,0.438476,hit
71,right,2025-12-17 15:14:04.090532+00:00,0.53474,hit
72,left,2025-12-17 15:14:06.090532+00:00,0.402828,hit
73,left,2025-12-17 15:14:10.090532+00:00,0.435402,hit
74,left,2025-12-17 15:14:15.090532+00:00,0.445413,hit
75,right,2025-12-17 15:14:22.090532+00:00,0.464909,hit
76,left,2025-12-17 15:14:24.090532+00:00,0.429827,hit
77,left,2025-12-17 15:14:31.090532+00:00,0.420037,hit
78,right,2025-12-17 15:14:33.090532+00:00,0.42638,hit
79,right,2025-12-17 15:14:38.090532+00:00,0.392085,hit
80,right,2025-12-17 15:14:42.090532+00:00,0.397406,hit
81,right,2025-12-17 15:14:44.090532+00:00,0.415311,hit
82,left,2025-12-17 15:14:49.090532+00:00,0.477419,hit
83,right,2025-12-17 15:14:54.090532+00:00,0.432345,hit
84,left,2025-12-17 15:15:01.090532+00:00,0.43691,hit
85,left,2025-12-17 15:15:05.090532+00:00,0.462356,hit
86,right,2025-12-17 15:15:09.090532+00:00,0.455459,hit
87,left,2025-12-17 15:15:11.090532+00:00,0.463139,hit
88,right,2025-12-17 15:15:18.090532+00:00,0.452882,hit
89,right,2025-12-17 15:15:22.090532+00:00,0.426688,hit
90,left,2025-12-17 15:15:24.090532+00:00,0.407765,hit
91,left,2025-12-17 15:15:28.090532+00:00,0.3983,hit
92,right,2025-12-17 15:15:33.090532+00:00,0.40945,hit
93,right,2025-12-17 15:15:35.090532+00:00,0.391996,hit
94,right,2025-12-17 15:15:42.090532+00:00,0.420922,hit
95,left,2025-12-17 15:15:49.090532+00:00,0.403762,hit
96,left,2025-12-17 15:15:54.090532+00:00,0.401087,hit
97,left,2025-12-17 15:16:01.090532+00:00,0.586942,hit
98,left,2025-12-17 15:16:05.090532+00:00,0.447759,hit
99,left,2025-12-17 15:16:07.090532+00:00,0.411116,hit
100,right,2025-12-17 15:16:12.090532+00:00,0.396844,hit
101,right,2025-12-17 15:16:19.090532+00:00,0.433528,hit
102,right,2025-12-17 15:16:23.090532+00:00,0.420505,hit
103,right,2025-12-17 15:16:25.090532+00:00,0.465001,hit
104,left,2025-12-17 15:16:30.090532+00:00,0.513743,hit
105,right,2025-12-17 15:16:32.090532+00:00,0.508915,hit
106,none,,,false_positive
106,left,2025-12-17 15:16:37.090532+00:00,0.419393,hit
107,right,2025-12-17 15:16:44.090532+00:00,0.490749,hit
108,left,2025-12-17 15:16:48.090532+00:00,0.392722,hit
109,left,2025-12-17 15:16:55.090532+00:00,0.480874,hit
110,right,2025-12-17 15:16:59.090532+00:00,0.403695,hit
111,left,2025-12-17 15:17:01.090532+00:00,0.527134,hit
112,right,2025-12-17 15:17:06.090532+00:00,0.396187,hit
113,left,2025-12-17 15:17:08.090532+00:00,0.408676,hit
114,left,2025-12-17 15:17:12.090532+00:00,0.406527,hit
115,right,2025-12-17 15:17:14.090532+00:00,0.46808,hit
116,left,2025-12-17 15:17:21.090532+00:00,0.442384,hit
117,right,2025-12-17 15:17:25.090532+00:00,0.440783,hit
118,left,2025-12-17 15:17:30.090532+00:00,0.390133,hit
119,right,2025-12-17 15:17:35.090532+00:00,0.423332,hit
120,right,2025-12-17 15:17:42.090532+00:00,0.431206,hit
121,left,2025-12-17 15:17:46.090532+00:00,0.469377,hit
122,right,2025-12-17 15:17:53.090532+00:00,0.501804,hit
123,left,2025-12-17 15:18:00.090532+00:00,0.451985,hit
124,left,2025-12-17 15:18:05.090532+00:00,0.504823,hit
125,right,2025-12-17 15:18:10.090532+00:00,0.46917,hit
126,left,2025-12-17 15:18:12.090532+00:00,0.450612,hit
127,right,2025-12-17 15:18:16.090532+00:00,0.438471,hit
128,right,2025-12-17 15:18:18.090532+00:00,0.533077,hit
129,left,2025-12-17 15:18:20.090532+00:00,0.468528,hit
130,right,2025-12-17 15:18:24.090532+00:00,0.433241,hit
131,left,2025-12-17 15:18:29.090532+00:00,0.439771,hit
132,left,2025-12-17 15:18:36.090532+00:00,0.593197,hit
133,left,2025-12-17 15:18:40.090532+00:00,0.483325,hit
134,right,2025-12-17 15:18:45.090532+00:00,0.387338,hit
135,right,2025-12-17 15:18:52.090532+00:00,0.423789,hit
136,right,2025-12-17 15:18:54.090532+00:00,0.491423,hit
137,left,2025-12-17 15:18:58.090532+00:00,0.415111,hit
138,left,2025-12-17 15:19:03.090532+00:00,0.40155,hit
139,left,2025-12-17 15:19:05.090532+00:00,0.427408,hit
140,right,2025-12-17 15:19:07.090532+00:00,0.418477,hit
141,right,2025-12-17 15:19:12.090532+00:00,0.441451,hit
142,left,2025-12-17 15:19:19.090532+00:00,0.471941,hit
143,right,2025-12-17 15:19:26.090532+00:00,0.608374,hit
144,right,2025-12-17 15:19:30.090532+00:00,0.434568,hit
145,right,2025-12-17 15:19:35.090532+00:00,0.417116,hit
146,left,2025-12-17 15:19:42.090532+00:00,0.422227,hit
147,right,2025-12-17 15:19:46.090532+00:00,0.42262,hit
148,right,2025-12-17 15:19:48.090532+00:00,0.461841,hit
149,left,2025-12-17 15:19:53.090532+00:00,0.448897,hit
150,right,2025-12-17 15:20:00.090532+00:00,0.604601,hit
151,left,2025-12-17 15:20:02.090532+00:00,0.458391,hit
152,left,2025-12-17 15:20:06.090532+00:00,0.405233,hit
153,left,2025-12-17 15:20:13.090532+00:00,0.418566,hit
154,right,2025-12-17 15:20:20.090532+00:00,0.454961,hit
155,right,2025-12-17 15:20:25.090532+00:00,0.464564,hit
156,right,2025-12-17 15:20:29.090532+00:00,0.399805,hit
157,left,2025-12-17 15:20:31.090532+00:00,0.403705,hit
158,left,2025-12-17 15:20:36.090532+00:00,0.560726,hit
159,left,2025-12-17 15:20:40.090532+00:00,0.613142,hit
160,right,2025-12-17 15:20:42.090532+00:00,0.40271,hit
161,right,2025-12-17 15:20:46.090532+00:00,0.438176,hit
162,left,2025-12-17 15:20:53.090532+00:00,0.443737,hit
163,right,2025-12-17 15:20:58.090532+00:00,0.396743,hit
164,left,2025-12-17 15:21:02.090532+00:00,0.521197,hit
165,left,2025-12-17 15:21:04.090532+00:00,0.447577,hit
166,right,2025-12-17 15:21:11.090532+00:00,0.430446,hit
167,left,2025-12-17 15:21:16.090532+00:00,0.487711,hit
168,right,2025-12-17 15:21:18.090532+00:00,0.476376,hit
169,right,2025-12-17 15:21:20.090532+00:00,0.461238,hit
170,right,2025-12-17 15:21:24.090532+00:00,0.439053,hit
171,right,2025-12-17 15:21:31.090532+00:00,0.471424,hit
172,left,2025-12-17 15:21:38.090532+00:00,0.516899,hit
173,left,2025-12-17 15:21:43.090532+00:00,0.440769,hit
174,left,2025-12-17 15:21:45.090532+00:00,0.550929,hit
175,right,2025-12-17 15:21:50.090532+00:00,0.439267,hit
176,left,2025-12-17 15:21:54.090532+00:00,0.469086,hit
177,right,2025-12-17 15:21:58.090532+00:00,0.420408,hit
178,left,2025-12-17 15:22:02.090532+00:00,0.449307,hit
179,left,2025-12-17 15:22:04.090532+00:00,0.440852,hit
180,right,2025-12-17 15:22:11.090532+00:00,0.494561,hit
181,right,2025-12-17 15:22:13.090532+00:00,0.648624,hit
182,left,2025-12-17 15:22:20.090532+00:00,0.668863,hit
183,right,2025-12-17 15:22:25.090532+00:00,0.469275,hit
184,left,2025-12-17 15:22:30.090532+00:00,0.44334,hit
185,right,2025-12-17 15:22:32.090532+00:00,0.440319,hit
186,right,2025-12-17 15:22:37.090532+00:00,0.437737,hit
187,right,2025-12-17 15:22:44.090532+00:00,0.465147,hit
188,left,2025-12-17 15:22:51.090532+00:00,0.403417,hit
189,right,2025-12-17 15:22:55.090532+00:00,0.594947,hit
190,left,2025-12-17 15:22:57.090532+00:00,0.393053,hit
191,left,2025-12-17 15:23:02.090532+00:00,0.420291,hit
192,left,2025-12-17 15:23:06.090532+00:00,0.425865,hit
193,right,2025-12-17 15:23:08.090532+00:00,0.42445,hit
194,right,2025-12-17 15:23:12.090532+00:00,0.384142,hit
195,right,2025-12-17 15:23:17.090532+00:00,0.433868,hit
196,left,2025-12-17 15:23:21.090532+00:00,0.468066,hit
197,left,2025-12-17 15:23:26.090532+00:00,0.547926,hit
198,right,2025-12-17 15:23:33.090532+00:00,0.479089,hit
199,left,2025-12-17 15:23:40.090532+00:00,0.465827,hit
