trial,side,utc_timestamp,RT_seconds,resp_status
1,left,2025-12-18 10:39:49.386440+00:00,0.704912,hit
2,left,2025-12-18 10:39:53.380270+00:00,0.672038,hit
3,right,2025-12-18 10:40:00.381083+00:00,0.576484,hit
4,right,2025-12-18 10:40:02.389608+00:00,0.612512,hit
5,left,2025-12-18 10:40:07.381896+00:00,0.597071,hit
6,left,2025-12-18 10:40:09.378811+00:00,0.580023,hit
7,right,2025-12-18 10:40:13.384252+00:00,0.569809,hit
8,right,2025-12-18 10:40:18.376539+00:00,0.658363,hit
9,left,2025-12-18 10:40:20.385065+00:00,0.643201,hit
10,left,2025-12-18 10:40:25.377352+00:00,0.567598,hit
11,right,2025-12-18 10:40:30.381250+00:00,0.712047,hit
12,right,2025-12-18 10:40:32.378165+00:00,0.885632,hit
13,left,2025-12-18 10:40:39.378978+00:00,0.713978,hit
14,right,2025-12-18 10:40:46.379791+00:00,0.587924,hit
15,left,2025-12-18 10:40:50.385231+00:00,0.532557,hit
16,right,2025-12-18 10:40:54.379062+00:00,0.600574,hit
17,left,2025-12-18 10:40:59.382959+00:00,0.583113,hit
18,left,2025-12-18 10:41:06.383772+00:00,0.597337,hit
19,left,2025-12-18 10:41:10.377603+00:00,0.538121,hit
20,right,2025-12-18 10:41:12.386128+00:00,0.612867,hit
21,left,2025-12-18 10:41:14.383043+00:00,0.556749,hit
22,right,2025-12-18 10:41:21.383856+00:00,0.568363,hit
23,right,2025-12-18 10:41:25.377686+00:00,0.564103,hit
24,right,2025-12-18 10:41:30.381584+00:00,0.579049,hit
25,left,2025-12-18 10:41:32.378499+00:00,0.624341,hit
26,right,2025-12-18 10:41:37.382397+00:00,0.599902,hit
27,right,2025-12-18 10:41:39.379312+00:00,0.606874,hit
28,right,2025-12-18 10:41:43.384752+00:00,0.57226,hit
29,left,2025-12-18 10:41:48.377040+00:00,0.586667,hit
30,right,2025-12-18 10:41:55.377853+00:00,0.601833,hit
31,left,2025-12-18 10:42:02.378666+00:00,0.601259,hit
32,left,2025-12-18 10:42:06.384106+00:00,0.547828,hit
33,right,2025-12-18 10:42:11.376394+00:00,0.601882,hit
34,right,2025-12-18 10:42:18.377207+00:00,0.614786,hit
35,left,2025-12-18 10:42:23.381105+00:00,0.61833,hit
36,left,2025-12-18 10:42:30.381918+00:00,0.588986,hit
37,left,2025-12-18 10:42:34.375748+00:00,0.56576,hit
38,right,2025-12-18 10:42:36.384273+00:00,0.594462,hit
39,right,2025-12-18 10:42:40.378103+00:00,0.662422,hit
40,left,2025-12-18 10:42:42.386628+00:00,0.632465,hit
41,left,2025-12-18 10:42:49.381094+00:00,0.522697,hit
42,right,2025-12-18 10:42:51.381094+00:00,0.622859,hit
43,right,2025-12-18 10:42:56.381094+00:00,0.593046,hit
44,left,2025-12-18 10:42:58.381094+00:00,0.534036,hit
45,right,2025-12-18 10:43:05.381094+00:00,0.615784,hit
46,left,2025-12-18 10:43:09.381094+00:00,0.520555,hit
47,right,2025-12-18 10:43:13.381094+00:00,0.549218,hit
48,left,2025-12-18 10:43:18.381094+00:00,0.592573,hit
49,right,2025-12-18 10:43:23.381094+00:00,0.601854,hit
50,right,2025-12-18 10:43:27.381094+00:00,0.611676,hit
51,left,2025-12-18 10:43:34.381094+00:00,0.612876,hit
52,left,2025-12-18 10:43:36.381094+00:00,0.639663,hit
53,left,2025-12-18 10:43:41.381094+00:00,0.575134,hit
54,right,2025-12-18 10:43:48.381094+00:00,0.577541,hit
55,left,2025-12-18 10:43:52.381094+00:00,0.579697,hit
56,right,2025-12-18 10:43:54.381094+00:00,0.599243,hit
57,left,2025-12-18 10:43:59.381094+00:00,0.58881,hit
58,right,2025-12-18 10:44:06.381094+00:00,0.597909,hit
59,left,2025-12-18 10:44:13.381094+00:00,0.59145,hit
60,left,2025-12-18 10:44:17.381094+00:00,0.575674,hit
61,left,2025-12-18 10:44:19.381094+00:00,0.603916,hit
62,right,2025-12-18 10:44:21.381094+00:00,0.57124,hit
63,right,2025-12-18 10:44:25.381094+00:00,0.54197,hit
64,right,2025-12-18 10:44:30.381094+00:00,0.585621,hit
65,right,2025-12-18 10:44:32.381094+00:00,0.649675,hit
66,left,2025-12-18 10:44:39.381094+00:00,0.588406,hit
67,left,2025-12-18 10:44:44.381094+00:00,0.639049,hit
68,right,2025-12-18 10:44:51.381094+00:00,0.580127,hit
69,right,2025-12-18 10:44:55.381094+00:00,0.582539,hit
70,left,2025-12-18 10:44:59.381094+00:00,0.56181,hit
71,right,2025-12-18 10:45:04.381094+00:00,0.563873,hit
72,left,2025-12-18 10:45:06.381094+00:00,0.691536,hit
73,left,2025-12-18 10:45:10.381094+00:00,0.680197,hit
74,left,2025-12-18 10:45:15.381094+00:00,0.56466,hit
75,right,2025-12-18 10:45:22.381094+00:00,0.564189,hit
76,left,2025-12-18 10:45:24.381094+00:00,0.632055,hit
77,left,2025-12-18 10:45:31.381094+00:00,0.613035,hit
78,right,2025-12-18 10:45:33.381094+00:00,0.654663,hit
79,right,2025-12-18 10:45:38.381094+00:00,0.617005,hit
80,right,2025-12-18 10:45:42.381094+00:00,0.60043,hit
81,right,2025-12-18 10:45:44.381094+00:00,0.611502,hit
82,left,2025-12-18 10:45:49.381094+00:00,0.649468,hit
83,right,2025-12-18 10:45:54.381094+00:00,0.614395,hit
84,left,2025-12-18 10:46:01.381094+00:00,0.629267,hit
85,left,2025-12-18 10:46:05.381094+00:00,0.586806,hit
86,right,2025-12-18 10:46:09.381094+00:00,0.551215,hit
87,left,2025-12-18 10:46:11.381094+00:00,0.562113,hit
88,right,2025-12-18 10:46:18.381094+00:00,0.580093,hit
89,right,2025-12-18 10:46:22.381094+00:00,0.523036,hit
90,left,2025-12-18 10:46:24.381094+00:00,0.583494,hit
91,left,2025-12-18 10:46:28.381094+00:00,0.587476,hit
92,right,2025-12-18 10:46:33.381094+00:00,0.609653,hit
93,right,2025-12-18 10:46:35.381094+00:00,0.568099,hit
94,right,2025-12-18 10:46:42.381094+00:00,0.578242,hit
95,left,2025-12-18 10:46:49.381094+00:00,0.636403,hit
96,left,2025-12-18 10:46:54.381094+00:00,0.570261,hit
97,left,2025-12-18 10:47:01.381094+00:00,0.594676,hit
98,left,2025-12-18 10:47:05.381094+00:00,0.624159,hit
99,left,2025-12-18 10:47:07.381094+00:00,0.583017,hit
100,right,2025-12-18 10:47:12.381094+00:00,0.617574,hit
101,right,2025-12-18 10:47:19.381094+00:00,0.586394,hit
102,right,2025-12-18 10:47:23.381094+00:00,0.555823,hit
103,right,2025-12-18 10:47:25.381094+00:00,0.58834,hit
104,left,2025-12-18 10:47:30.381094+00:00,0.603999,hit
105,right,2025-12-18 10:47:32.381094+00:00,0.573513,hit
106,left,2025-12-18 10:47:37.381094+00:00,0.608564,hit
107,right,2025-12-18 10:47:44.381094+00:00,0.824438,hit
108,left,2025-12-18 10:47:48.381094+00:00,0.56335,hit
109,left,2025-12-18 10:47:55.381094+00:00,0.58893,hit
110,right,2025-12-18 10:47:59.381094+00:00,0.564476,hit
111,left,2025-12-18 10:48:01.381094+00:00,0.53716,hit
112,right,2025-12-18 10:48:06.381094+00:00,0.576627,hit
113,left,2025-12-18 10:48:08.381094+00:00,0.589596,hit
114,left,2025-12-18 10:48:12.381094+00:00,0.572061,hit
115,right,2025-12-18 10:48:14.381094+00:00,0.563188,hit
116,left,2025-12-18 10:48:21.381094+00:00,0.587069,hit
117,right,2025-12-18 10:48:25.381094+00:00,0.580221,hit
118,left,2025-12-18 10:48:30.381094+00:00,0.582738,hit
119,right,2025-12-18 10:48:35.381094+00:00,0.597197,hit
120,right,2025-12-18 10:48:42.381094+00:00,0.63685,hit
121,left,2025-12-18 10:48:46.381094+00:00,0.594173,hit
122,right,2025-12-18 10:48:53.381094+00:00,0.611389,hit
123,left,2025-12-18 10:49:00.381094+00:00,0.56365,hit
124,left,2025-12-18 10:49:05.381094+00:00,0.581859,hit
125,right,2025-12-18 10:49:10.381094+00:00,0.5947,hit
126,left,2025-12-18 10:49:12.381094+00:00,0.644072,hit
127,right,2025-12-18 10:49:16.381094+00:00,0.623281,hit
128,right,2025-12-18 10:49:18.381094+00:00,0.600644,hit
129,left,2025-12-18 10:49:20.381094+00:00,0.627176,hit
130,right,2025-12-18 10:49:24.381094+00:00,0.711111,hit
131,left,2025-12-18 10:49:29.381094+00:00,0.588414,hit
132,left,2025-12-18 10:49:36.381094+00:00,0.588477,hit
133,left,2025-12-18 10:49:40.381094+00:00,0.572298,hit
134,right,2025-12-18 10:49:45.381094+00:00,0.549773,hit
135,right,2025-12-18 10:49:52.381094+00:00,0.647982,hit
136,right,2025-12-18 10:49:54.381094+00:00,0.639343,hit
137,left,2025-12-18 10:49:58.381094+00:00,0.580796,hit
138,left,2025-12-18 10:50:03.381094+00:00,0.596676,hit
139,left,2025-12-18 10:50:05.381094+00:00,0.574195,hit
140,right,2025-12-18 10:50:07.381094+00:00,0.573469,hit
141,right,2025-12-18 10:50:12.381094+00:00,0.55899,hit
142,left,2025-12-18 10:50:19.381094+00:00,0.559204,hit
143,right,2025-12-18 10:50:26.381094+00:00,0.644145,hit
144,right,2025-12-18 10:50:30.381094+00:00,0.561467,hit
145,right,2025-12-18 10:50:35.381094+00:00,0.55986,hit
146,left,2025-12-18 10:50:42.381094+00:00,0.607228,hit
147,right,2025-12-18 10:50:46.381094+00:00,0.595284,hit
148,right,2025-12-18 10:50:48.381094+00:00,0.621546,hit
149,left,2025-12-18 10:50:53.381094+00:00,0.565678,hit
150,right,2025-12-18 10:51:00.381094+00:00,0.600436,hit
151,left,2025-12-18 10:51:02.381094+00:00,0.562336,hit
152,left,2025-12-18 10:51:06.381094+00:00,0.540519,hit
153,left,2025-12-18 10:51:13.381094+00:00,0.569198,hit
154,right,2025-12-18 10:51:20.381094+00:00,0.69802,hit
155,right,2025-12-18 10:51:25.381094+00:00,0.616833,hit
156,right,2025-12-18 10:51:29.381094+00:00,0.598529,hit
157,left,2025-12-18 10:51:31.381094+00:00,0.57181,hit
158,left,2025-12-18 10:51:36.381094+00:00,0.581491,hit
159,left,2025-12-18 10:51:40.381094+00:00,0.634327,hit
160,right,2025-12-18 10:51:42.381094+00:00,0.625911,hit
161,right,2025-12-18 10:51:46.381094+00:00,0.588589,hit
162,left,2025-12-18 10:51:53.381094+00:00,0.591614,hit
163,right,2025-12-18 10:51:58.381094+00:00,0.610349,hit
164,left,2025-12-18 10:52:02.381094+00:00,0.557566,hit
165,left,2025-12-18 10:52:04.381094+00:00,0.566987,hit
166,right,2025-12-18 10:52:11.381094+00:00,0.665323,hit
167,left,2025-12-18 10:52:16.381094+00:00,0.544343,hit
168,right,2025-12-18 10:52:18.381094+00:00,0.581225,hit
169,right,2025-12-18 10:52:20.381094+00:00,0.601204,hit
170,right,2025-12-18 10:52:24.381094+00:00,0.546355,hit
171,right,2025-12-18 10:52:31.381094+00:00,0.667577,hit
172,left,2025-12-18 10:52:38.381094+00:00,0.596326,hit
173,left,2025-12-18 10:52:43.381094+00:00,0.59337,hit
174,left,2025-12-18 10:52:45.381094+00:00,0.606492,hit
175,right,2025-12-18 10:52:50.381094+00:00,0.576891,hit
176,left,2025-12-18 10:52:54.381094+00:00,0.521831,hit
177,right,2025-12-18 10:52:58.381094+00:00,0.571358,hit
178,left,2025-12-18 10:53:02.381094+00:00,0.558859,hit
179,left,2025-12-18 10:53:04.381094+00:00,0.58667,hit
180,right,2025-12-18 10:53:11.381094+00:00,0.618724,hit
181,right,2025-12-18 10:53:13.381094+00:00,0.560803,hit
182,left,2025-12-18 10:53:20.381094+00:00,0.59676,hit
183,right,2025-12-18 10:53:25.381094+00:00,0.585163,hit
184,left,2025-12-18 10:53:30.381094+00:00,0.612778,hit
185,right,2025-12-18 10:53:32.381094+00:00,0.628368,hit
186,right,2025-12-18 10:53:37.381094+00:00,0.580597,hit
187,right,2025-12-18 10:53:44.381094+00:00,0.562786,hit
188,left,2025-12-18 10:53:51.381094+00:00,0.540396,hit
189,right,2025-12-18 10:53:55.381094+00:00,0.562571,hit
190,left,2025-12-18 10:53:57.381094+00:00,0.614228,hit
191,left,2025-12-18 10:54:02.381094+00:00,0.557181,hit
192,left,2025-12-18 10:54:06.381094+00:00,0.578669,hit
193,right,2025-12-18 10:54:08.381094+00:00,0.62391,hit
194,right,2025-12-18 10:54:12.381094+00:00,0.569266,hit
195,right,2025-12-18 10:54:17.381094+00:00,0.597875,hit
196,left,2025-12-18 10:54:21.381094+00:00,0.552037,hit
197,left,2025-12-18 10:54:26.381094+00:00,0.570032,hit
198,right,2025-12-18 10:54:33.381094+00:00,0.612239,hit
199,left,2025-12-18 10:54:40.381094+00:00,0.652714,hit
