trial,side,utc_timestamp,RT_seconds,resp_status
1,left,2025-12-23 13:28:53.483702+00:00,0.483172,hit
2,left,2025-12-23 13:28:57.483267+00:00,0.427354,hit
3,right,2025-12-23 13:29:04.484074+00:00,0.415889,hit
4,right,2025-12-23 13:29:06.486795+00:00,0.462774,hit
5,left,2025-12-23 13:29:11.484900+00:00,0.40823,hit
6,left,2025-12-23 13:29:13.481816+00:00,0.41411,hit
7,right,2025-12-23 13:29:17.481453+00:00,0.389638,hit
8,right,2025-12-23 13:29:22.485344+00:00,0.429804,hit
9,left,2025-12-23 13:29:24.482255+00:00,0.436385,hit
10,left,2025-12-23 13:29:29.486169+00:00,0.414466,hit
11,right,2025-12-23 13:29:34.478446+00:00,0.413047,hit
12,right,2025-12-23 13:29:36.481167+00:00,0.427578,hit
13,left,2025-12-23 13:29:43.481997+00:00,0.425262,hit
14,right,2025-12-23 13:29:50.488609+00:00,0.46371,hit
15,left,2025-12-23 13:29:54.482437+00:00,0.407458,hit
16,right,2025-12-23 13:29:58.482074+00:00,0.456658,hit
17,left,2025-12-23 13:30:03.485988+00:00,0.422139,hit
18,left,2025-12-23 13:30:10.486795+00:00,0.431229,hit
19,left,2025-12-23 13:30:14.480623+00:00,0.435097,hit
20,right,2025-12-23 13:30:16.483344+00:00,0.459592,hit
21,left,2025-12-23 13:30:18.480260+00:00,0.42222,hit
22,right,2025-12-23 13:30:25.481090+00:00,0.432334,hit
23,right,2025-12-23 13:30:29.486514+00:00,0.427904,hit
24,right,2025-12-23 13:30:34.478809+00:00,0.480221,hit
25,left,2025-12-23 13:30:36.487339+00:00,0.420285,hit
26,right,2025-12-23 13:30:41.485444+00:00,0.399262,hit
27,right,2025-12-23 13:30:43.482360+00:00,0.408028,hit
28,right,2025-12-23 13:30:47.481997+00:00,0.41776,hit
29,left,2025-12-23 13:30:52.485888+00:00,0.471776,hit
30,right,2025-12-23 13:30:59.486695+00:00,0.433159,hit
31,left,2025-12-23 13:31:06.487521+00:00,0.429,hit
32,left,2025-12-23 13:31:10.481349+00:00,0.479361,hit
33,right,2025-12-23 13:31:15.485262+00:00,0.454501,hit
34,right,2025-12-23 13:31:22.480260+00:00,0.456452,hit
35,left,2025-12-23 13:31:27.484174+00:00,0.433972,hit
36,left,2025-12-23 13:31:34.484981+00:00,0.447625,hit
37,left,2025-12-23 13:31:38.484618+00:00,0.42852,hit
38,right,2025-12-23 13:31:40.487339+00:00,0.434398,hit
39,right,2025-12-23 13:31:44.486977+00:00,0.426373,hit
40,left,2025-12-23 13:31:46.483893+00:00,0.429981,hit
41,left,2025-12-23 13:31:53.483983500+00:00,0.4270585,hit
42,right,2025-12-23 13:31:55.483983500+00:00,0.4091575,hit
43,right,2025-12-23 13:32:00.483983500+00:00,0.4449545,hit
44,left,2025-12-23 13:32:02.483983500+00:00,0.5868115,hit
45,right,2025-12-23 13:32:09.483983500+00:00,0.4227025,hit
46,left,2025-12-23 13:32:13.483983500+00:00,0.4440555,hit
47,right,2025-12-23 13:32:17.483983500+00:00,0.4180425,hit
48,left,2025-12-23 13:32:22.483983500+00:00,0.4647455,hit
49,right,2025-12-23 13:32:27.483983500+00:00,0.4026525,hit
50,right,2025-12-23 13:32:31.483983500+00:00,0.4048115,hit
51,left,2025-12-23 13:32:38.483983500+00:00,0.4362105,hit
52,left,2025-12-23 13:32:40.483983500+00:00,0.4421885,hit
53,left,2025-12-23 13:32:45.483983500+00:00,0.3948525,hit
54,none,,,false_positive
54,right,2025-12-23 13:32:52.483983500+00:00,0.4034885,hit
55,left,2025-12-23 13:32:56.483983500+00:00,0.4253805,hit
56,right,2025-12-23 13:32:58.483983500+00:00,0.4425855,hit
57,left,2025-12-23 13:33:03.483983500+00:00,0.4489905,hit
58,right,2025-12-23 13:33:10.483983500+00:00,0.4642485,hit
59,left,2025-12-23 13:33:17.483983500+00:00,0.4528495,hit
60,left,2025-12-23 13:33:21.483983500+00:00,0.5001695,hit
61,left,2025-12-23 13:33:23.483983500+00:00,0.5083965,hit
62,right,2025-12-23 13:33:25.483983500+00:00,0.3999005,hit
63,right,2025-12-23 13:33:29.483983500+00:00,0.4239355,hit
64,right,2025-12-23 13:33:34.483983500+00:00,0.4398145,hit
65,right,2025-12-23 13:33:36.483983500+00:00,0.5229855,hit
66,left,2025-12-23 13:33:43.483983500+00:00,0.4481055,hit
67,left,2025-12-23 13:33:48.483983500+00:00,0.4318845,hit
68,right,2025-12-23 13:33:55.483983500+00:00,0.4823535,hit
69,right,2025-12-23 13:33:59.483983500+00:00,0.4540565,hit
70,left,2025-12-23 13:34:03.483983500+00:00,0.4693345,hit
71,right,2025-12-23 13:34:08.483983500+00:00,0.4369175,hit
72,left,2025-12-23 13:34:10.483983500+00:00,0.5128125,hit
73,left,2025-12-23 13:34:14.483983500+00:00,0.3850105,hit
74,left,2025-12-23 13:34:19.483983500+00:00,0.4127105,hit
75,right,2025-12-23 13:34:26.483983500+00:00,0.4182355,hit
76,left,2025-12-23 13:34:28.483983500+00:00,0.4645465,hit
77,left,2025-12-23 13:34:35.483983500+00:00,0.4425025,hit
78,right,2025-12-23 13:34:37.483983500+00:00,0.4241675,hit
79,right,2025-12-23 13:34:42.483983500+00:00,0.4512815,hit
80,right,2025-12-23 13:34:46.483983500+00:00,0.3811975,hit
81,right,2025-12-23 13:34:48.483983500+00:00,0.4855605,hit
82,left,2025-12-23 13:34:53.483983500+00:00,0.4324035,hit
83,right,2025-12-23 13:34:58.483983500+00:00,0.4555485,hit
84,left,2025-12-23 13:35:05.483983500+00:00,0.4536215,hit
85,left,2025-12-23 13:35:09.483983500+00:00,0.4667445,hit
86,right,2025-12-23 13:35:13.483983500+00:00,0.4933225,hit
87,left,2025-12-23 13:35:15.483983500+00:00,0.4888905,hit
88,right,2025-12-23 13:35:22.483983500+00:00,0.4787725,hit
89,none,,,false_positive
89,right,2025-12-23 13:35:26.483983500+00:00,0.4518195,hit
90,left,2025-12-23 13:35:28.483983500+00:00,0.4294055,hit
91,left,2025-12-23 13:35:32.483983500+00:00,0.4433625,hit
92,right,2025-12-23 13:35:37.483983500+00:00,0.4819845,hit
93,right,2025-12-23 13:35:39.483983500+00:00,0.4201865,hit
94,right,2025-12-23 13:35:46.483983500+00:00,0.4643195,hit
95,left,2025-12-23 13:35:53.483983500+00:00,0.4769155,hit
96,left,2025-12-23 13:35:58.483983500+00:00,0.4290555,hit
97,left,2025-12-23 13:36:05.483983500+00:00,0.4413495,hit
98,left,2025-12-23 13:36:09.483983500+00:00,0.4355295,hit
99,left,2025-12-23 13:36:11.483983500+00:00,0.4863025,hit
100,right,2025-12-23 13:36:16.483983500+00:00,0.4299225,hit
101,none,,,false_positive
101,right,2025-12-23 13:36:23.483983500+00:00,0.4285085,hit
102,right,2025-12-23 13:36:27.483983500+00:00,0.4258415,hit
103,right,2025-12-23 13:36:29.483983500+00:00,0.4356165,hit
104,left,2025-12-23 13:36:34.483983500+00:00,0.4835765,hit
105,right,2025-12-23 13:36:36.483983500+00:00,0.5172275,hit
106,left,2025-12-23 13:36:41.483983500+00:00,0.5345555,hit
107,right,2025-12-23 13:36:48.483983500+00:00,0.7887135,hit
108,left,2025-12-23 13:36:52.483983500+00:00,0.4930735,hit
109,left,2025-12-23 13:36:59.483983500+00:00,0.4399505,hit
110,right,2025-12-23 13:37:03.483983500+00:00,0.4737705,hit
111,left,2025-12-23 13:37:05.483983500+00:00,0.4823865,hit
112,right,2025-12-23 13:37:10.483983500+00:00,0.4863425,hit
113,left,2025-12-23 13:37:12.483983500+00:00,0.4493945,hit
114,left,2025-12-23 13:37:16.483983500+00:00,0.4812255,hit
115,right,2025-12-23 13:37:18.483983500+00:00,0.4654535,hit
116,left,2025-12-23 13:37:25.483983500+00:00,0.4708135,hit
117,right,2025-12-23 13:37:29.483983500+00:00,0.4606935,hit
118,left,2025-12-23 13:37:34.483983500+00:00,0.4690155,hit
119,right,2025-12-23 13:37:39.483983500+00:00,0.4516895,hit
120,right,2025-12-23 13:37:46.483983500+00:00,0.4785265,hit
121,left,2025-12-23 13:37:50.483983500+00:00,0.4398195,hit
122,right,2025-12-23 13:37:57.483983500+00:00,0.4330755,hit
123,none,,,false_positive
123,left,2025-12-23 13:38:04.483983500+00:00,0.4642045,hit
124,left,2025-12-23 13:38:09.483983500+00:00,0.4664205,hit
125,right,2025-12-23 13:38:14.483983500+00:00,0.4455155,hit
126,left,2025-12-23 13:38:16.483983500+00:00,0.4547795,hit
127,right,2025-12-23 13:38:20.483983500+00:00,0.4553445,hit
128,right,2025-12-23 13:38:22.483983500+00:00,0.4262825,hit
129,left,2025-12-23 13:38:24.483983500+00:00,0.4554425,hit
130,right,2025-12-23 13:38:28.483983500+00:00,0.4424145,hit
131,left,2025-12-23 13:38:33.483983500+00:00,0.4551085,hit
132,left,2025-12-23 13:38:40.483983500+00:00,0.4836175,hit
133,left,2025-12-23 13:38:44.483983500+00:00,0.5045215,hit
134,right,2025-12-23 13:38:49.483983500+00:00,0.5656425,hit
135,right,2025-12-23 13:38:56.483983500+00:00,0.4583805,hit
136,right,2025-12-23 13:38:58.483983500+00:00,0.4866435,hit
137,left,2025-12-23 13:39:02.483983500+00:00,0.4512325,hit
138,left,2025-12-23 13:39:07.483983500+00:00,0.4477145,hit
139,left,2025-12-23 13:39:09.483983500+00:00,0.4435075,hit
140,right,2025-12-23 13:39:11.483983500+00:00,0.4874645,hit
141,right,2025-12-23 13:39:16.483983500+00:00,0.4516795,hit
142,left,2025-12-23 13:39:23.483983500+00:00,0.4929845,hit
143,right,2025-12-23 13:39:30.483983500+00:00,0.4775505,hit
144,right,2025-12-23 13:39:34.483983500+00:00,0.4336845,hit
145,right,2025-12-23 13:39:39.483983500+00:00,0.4730835,hit
146,left,2025-12-23 13:39:46.483983500+00:00,0.4975565,hit
147,right,2025-12-23 13:39:50.483983500+00:00,0.4893995,hit
148,right,2025-12-23 13:39:52.483983500+00:00,0.5119395,hit
149,left,2025-12-23 13:39:57.483983500+00:00,0.4554585,hit
150,right,2025-12-23 13:40:04.483983500+00:00,0.5062165,hit
151,left,2025-12-23 13:40:06.483983500+00:00,0.4737305,hit
152,left,2025-12-23 13:40:10.483983500+00:00,0.4461815,hit
153,left,2025-12-23 13:40:17.483983500+00:00,0.5115095,hit
154,right,2025-12-23 13:40:24.483983500+00:00,0.5011795,hit
155,right,2025-12-23 13:40:29.483983500+00:00,0.4910045,hit
156,right,2025-12-23 13:40:33.483983500+00:00,0.4117975,hit
157,left,2025-12-23 13:40:35.483983500+00:00,0.4246155,hit
158,left,2025-12-23 13:40:40.483983500+00:00,0.4317555,hit
159,left,2025-12-23 13:40:44.483983500+00:00,0.4551345,hit
160,right,2025-12-23 13:40:46.483983500+00:00,0.4232325,hit
161,right,2025-12-23 13:40:50.483983500+00:00,0.4428835,hit
162,left,2025-12-23 13:40:57.483983500+00:00,0.4499435,hit
163,right,2025-12-23 13:41:02.483983500+00:00,0.4428725,hit
164,left,2025-12-23 13:41:06.483983500+00:00,0.4565435,hit
165,left,2025-12-23 13:41:08.483983500+00:00,0.4336285,hit
166,right,2025-12-23 13:41:15.483983500+00:00,0.4613805,hit
167,left,2025-12-23 13:41:20.483983500+00:00,0.5672735,hit
168,right,2025-12-23 13:41:22.483983500+00:00,0.5204055,hit
169,right,2025-12-23 13:41:24.483983500+00:00,0.5700775,hit
170,right,2025-12-23 13:41:28.483983500+00:00,0.4468695,hit
171,right,2025-12-23 13:41:35.483983500+00:00,0.4423585,hit
172,left,2025-12-23 13:41:42.483983500+00:00,0.4285855,hit
173,left,2025-12-23 13:41:47.483983500+00:00,0.6178885,hit
174,left,2025-12-23 13:41:49.483983500+00:00,0.4301405,hit
175,right,2025-12-23 13:41:54.483983500+00:00,0.4738155,hit
176,left,2025-12-23 13:41:58.483983500+00:00,0.4920885,hit
177,right,2025-12-23 13:42:02.483983500+00:00,0.4290225,hit
178,left,2025-12-23 13:42:06.483983500+00:00,0.4319885,hit
179,left,2025-12-23 13:42:08.483983500+00:00,0.4712845,hit
180,right,2025-12-23 13:42:15.483983500+00:00,0.4706885,hit
181,right,2025-12-23 13:42:17.483983500+00:00,0.4616115,hit
182,left,2025-12-23 13:42:24.483983500+00:00,0.4782535,hit
183,right,2025-12-23 13:42:29.483983500+00:00,0.4690485,hit
184,left,2025-12-23 13:42:34.483983500+00:00,0.5015595,hit
185,right,2025-12-23 13:42:36.483983500+00:00,0.4428535,hit
186,right,2025-12-23 13:42:41.483983500+00:00,0.4633895,hit
187,right,2025-12-23 13:42:48.483983500+00:00,0.4636355,hit
188,left,2025-12-23 13:42:55.483983500+00:00,0.4525185,hit
189,right,2025-12-23 13:42:59.483983500+00:00,0.5143545,hit
190,left,2025-12-23 13:43:01.483983500+00:00,0.4843735,hit
191,left,2025-12-23 13:43:06.483983500+00:00,0.4490015,hit
192,left,2025-12-23 13:43:10.483983500+00:00,0.4154325,hit
193,right,2025-12-23 13:43:12.483983500+00:00,0.4941925,hit
194,right,2025-12-23 13:43:16.483983500+00:00,0.4542455,hit
195,right,2025-12-23 13:43:21.483983500+00:00,0.4606045,hit
196,left,2025-12-23 13:43:25.483983500+00:00,0.4222015,hit
197,left,2025-12-23 13:43:30.483983500+00:00,0.4987985,hit
198,right,2025-12-23 13:43:37.483983500+00:00,0.4511385,hit
199,left,2025-12-23 13:43:44.483983500+00:00,0.5705445,hit
