trial,side,utc_timestamp,RT_seconds,resp_status
1,none,,,false_positive
1,left,2025-12-17 14:50:03.649520+00:00,0.689382,hit
2,left,2025-12-17 14:50:07.649158+00:00,0.463565,hit
3,right,2025-12-17 14:50:14.649965+00:00,0.465134,hit
4,right,2025-12-17 14:50:16.652686+00:00,0.541196,hit
5,left,2025-12-17 14:50:21.648051+00:00,0.570348,hit
6,left,2025-12-17 14:50:23.650754+00:00,0.489428,hit
7,right,2025-12-17 14:50:27.650391+00:00,0.502463,hit
8,right,2025-12-17 14:50:32.648495+00:00,0.487835,hit
9,left,2025-12-17 14:50:34.651217+00:00,0.496456,hit
10,left,2025-12-17 14:50:39.655112+00:00,0.520293,hit
11,right,2025-12-17 14:50:44.647407+00:00,0.501558,hit
12,right,2025-12-17 14:50:46.650128+00:00,0.522373,hit
13,left,2025-12-17 14:50:53.645148+00:00,0.553521,hit
14,right,2025-12-17 14:51:00.651761+00:00,0.481321,hit
15,left,2025-12-17 14:51:04.651398+00:00,0.489491,hit
16,right,2025-12-17 14:51:08.651035+00:00,0.481109,hit
17,left,2025-12-17 14:51:13.654931+00:00,0.447297,hit
18,left,2025-12-17 14:51:20.649946+00:00,0.487105,hit
19,left,2025-12-17 14:51:24.649584+00:00,0.480585,hit
20,right,2025-12-17 14:51:26.652309+00:00,0.547823,hit
21,left,2025-12-17 14:51:28.649221+00:00,0.510618,hit
22,right,2025-12-17 14:51:35.644241+00:00,0.461972,hit
23,right,2025-12-17 14:51:39.649665+00:00,0.522907,hit
24,right,2025-12-17 14:51:44.647770+00:00,0.457643,hit
25,left,2025-12-17 14:51:46.650491+00:00,0.516661,hit
26,right,2025-12-17 14:51:51.651452+00:00,0.506392,hit
27,right,2025-12-17 14:51:53.648368+00:00,0.485134,hit
28,right,2025-12-17 14:51:57.648005+00:00,0.475225,hit
29,left,2025-12-17 14:52:02.646087+00:00,0.476605,hit
30,right,2025-12-17 14:52:09.652722+00:00,0.465208,hit
31,left,2025-12-17 14:52:16.647720+00:00,0.433822,hit
32,left,2025-12-17 14:52:20.647357+00:00,0.421877,hit
33,right,2025-12-17 14:52:25.651271+00:00,0.442323,hit
34,right,2025-12-17 14:52:32.646269+00:00,0.436119,hit
35,left,2025-12-17 14:52:37.650182+00:00,0.462647,hit
36,left,2025-12-17 14:52:44.645180+00:00,0.430341,hit
37,left,2025-12-17 14:52:48.650627+00:00,0.433781,hit
38,right,2025-12-17 14:52:50.653348+00:00,0.543801,hit
39,right,2025-12-17 14:52:54.647176+00:00,0.429559,hit
40,left,2025-12-17 14:52:56.654839+00:00,0.432781,hit
41,left,2025-12-17 14:53:03.649855+00:00,0.394236,hit
42,right,2025-12-17 14:53:05.646771+00:00,0.519105,hit
43,right,2025-12-17 14:53:10.650662+00:00,0.496925,hit
44,left,2025-12-17 14:53:12.653383+00:00,0.522952,hit
45,right,2025-12-17 14:53:19.648403+00:00,0.440149,hit
46,left,2025-12-17 14:53:23.648041+00:00,0.476002,hit
47,right,2025-12-17 14:53:27.647678+00:00,0.454245,hit
48,left,2025-12-17 14:53:32.651569+00:00,0.460077,hit
49,right,2025-12-17 14:53:37.649673+00:00,0.435204,hit
50,right,2025-12-17 14:53:41.649311+00:00,0.489497,hit
51,left,2025-12-17 14:53:48.650118+00:00,0.510136,hit
52,left,2025-12-17 14:53:50.652839+00:00,0.511867,hit
53,left,2025-12-17 14:53:55.650943+00:00,0.466081,hit
54,right,2025-12-17 14:54:02.651750+00:00,0.446621,hit
55,left,2025-12-17 14:54:06.651388+00:00,0.448754,hit
56,right,2025-12-17 14:54:08.654966+00:00,0.472728,hit
57,left,2025-12-17 14:54:13.653075+00:00,0.475562,hit
58,right,2025-12-17 14:54:20.648068+00:00,0.494355,hit
59,left,2025-12-17 14:54:27.648898+00:00,0.475172,hit
60,left,2025-12-17 14:54:31.648535+00:00,0.535318,hit
61,left,2025-12-17 14:54:33.651256+00:00,0.454641,hit
62,right,2025-12-17 14:54:35.648172+00:00,0.4415,hit
63,right,2025-12-17 14:54:39.647809+00:00,0.455879,hit
64,right,2025-12-17 14:54:44.651700+00:00,0.464794,hit
65,right,2025-12-17 14:54:46.648612+00:00,0.494754,hit
66,left,2025-12-17 14:54:53.649442+00:00,0.444523,hit
67,left,2025-12-17 14:54:58.647524+00:00,0.457381,hit
68,right,2025-12-17 14:55:05.648354+00:00,0.442962,hit
69,right,2025-12-17 14:55:09.647991+00:00,0.473513,hit
70,left,2025-12-17 14:55:13.653437+00:00,0.477402,hit
71,right,2025-12-17 14:55:18.645710+00:00,0.47554,hit
72,left,2025-12-17 14:55:20.648431+00:00,0.458093,hit
73,left,2025-12-17 14:55:24.648068+00:00,0.458501,hit
74,left,2025-12-17 14:55:29.651982+00:00,0.468274,hit
75,right,2025-12-17 14:55:36.646979+00:00,0.431947,hit
76,left,2025-12-17 14:55:38.649701+00:00,0.494732,hit
77,left,2025-12-17 14:55:45.650804+00:00,0.475915,hit
78,right,2025-12-17 14:55:47.653525+00:00,0.471131,hit
79,right,2025-12-17 14:55:52.645825+00:00,0.470074,hit
80,right,2025-12-17 14:55:56.651249+00:00,0.481832,hit
81,right,2025-12-17 14:55:58.648183+00:00,0.468199,hit
82,left,2025-12-17 14:56:03.652074+00:00,0.421229,hit
83,right,2025-12-17 14:56:08.650178+00:00,0.523238,hit
84,left,2025-12-17 14:56:15.650986+00:00,0.476359,hit
85,left,2025-12-17 14:56:19.650623+00:00,0.468881,hit
86,right,2025-12-17 14:56:23.650260+00:00,0.47099,hit
87,left,2025-12-17 14:56:25.652981+00:00,0.505274,hit
88,right,2025-12-17 14:56:32.648001+00:00,0.422707,hit
89,right,2025-12-17 14:56:36.647639+00:00,0.480836,hit
90,left,2025-12-17 14:56:38.650360+00:00,0.494291,hit
91,left,2025-12-17 14:56:42.649997+00:00,0.422525,hit
92,right,2025-12-17 14:56:47.653893+00:00,0.455058,hit
93,right,2025-12-17 14:56:49.650804+00:00,0.464558,hit
94,right,2025-12-17 14:56:56.645825+00:00,0.46727,hit
95,left,2025-12-17 14:57:03.652437+00:00,0.504373,hit
96,left,2025-12-17 14:57:08.649672+00:00,0.493774,hit
97,left,2025-12-17 14:57:15.650480+00:00,0.47584,hit
98,left,2025-12-17 14:57:19.650117+00:00,0.474315,hit
99,left,2025-12-17 14:57:21.652838+00:00,0.545922,hit
100,right,2025-12-17 14:57:26.650942+00:00,0.446839,hit
101,right,2025-12-17 14:57:33.651749+00:00,0.476306,hit
102,right,2025-12-17 14:57:37.651386+00:00,0.44442,hit
103,right,2025-12-17 14:57:39.654112+00:00,0.51875,hit
104,left,2025-12-17 14:57:44.646407+00:00,0.487463,hit
105,right,2025-12-17 14:57:46.649128+00:00,0.468171,hit
106,left,2025-12-17 14:57:51.653019+00:00,0.465326,hit
107,right,2025-12-17 14:57:58.648040+00:00,0.433398,hit
108,left,2025-12-17 14:58:02.647677+00:00,0.48617,hit
109,left,2025-12-17 14:58:09.654294+00:00,0.437868,hit
110,right,2025-12-17 14:58:13.653931+00:00,0.49268,hit
111,left,2025-12-17 14:58:15.650842+00:00,0.521471,hit
112,right,2025-12-17 14:58:20.648947+00:00,0.478544,hit
113,left,2025-12-17 14:58:22.651672+00:00,0.480151,hit
114,left,2025-12-17 14:58:26.651309+00:00,0.462479,hit
115,right,2025-12-17 14:58:28.648221+00:00,0.473474,hit
116,left,2025-12-17 14:58:35.649028+00:00,0.511271,hit
117,right,2025-12-17 14:58:39.648665+00:00,0.439263,hit
118,left,2025-12-17 14:58:44.646770+00:00,0.516429,hit
119,right,2025-12-17 14:58:49.650661+00:00,0.439769,hit
120,right,2025-12-17 14:58:56.651491+00:00,0.569881,hit
121,left,2025-12-17 14:59:00.651124+00:00,0.505168,hit
122,right,2025-12-17 14:59:07.651931+00:00,0.505246,hit
123,left,2025-12-17 14:59:14.646951+00:00,0.491719,hit
124,left,2025-12-17 14:59:19.650842+00:00,0.448634,hit
125,right,2025-12-17 14:59:24.648947+00:00,0.448679,hit
126,left,2025-12-17 14:59:26.651672+00:00,0.504489,hit
127,right,2025-12-17 14:59:30.650852+00:00,0.443428,hit
128,right,2025-12-17 14:59:32.647768+00:00,0.48827,hit
129,left,2025-12-17 14:59:34.650490+00:00,0.454897,hit
130,right,2025-12-17 14:59:38.650127+00:00,0.408812,hit
131,left,2025-12-17 14:59:43.654041+00:00,0.455893,hit
132,left,2025-12-17 14:59:50.649038+00:00,0.453905,hit
133,left,2025-12-17 14:59:54.648676+00:00,0.432315,hit
134,right,2025-12-17 14:59:59.652589+00:00,0.461652,hit
135,right,2025-12-17 15:00:06.647587+00:00,0.441841,hit
136,right,2025-12-17 15:00:08.650308+00:00,0.5078,hit
137,left,2025-12-17 15:00:12.649945+00:00,0.464206,hit
138,left,2025-12-17 15:00:17.653859+00:00,0.452008,hit
139,left,2025-12-17 15:00:19.650775+00:00,0.471164,hit
140,right,2025-12-17 15:00:21.653497+00:00,0.394568,hit
141,right,2025-12-17 15:00:26.651578+00:00,0.486967,hit
142,left,2025-12-17 15:00:33.652408+00:00,0.448149,hit
143,right,2025-12-17 15:00:40.645726+00:00,0.464276,hit
144,right,2025-12-17 15:00:44.651173+00:00,0.467241,hit
145,right,2025-12-17 15:00:49.649254+00:00,0.507986,hit
146,left,2025-12-17 15:00:56.650080+00:00,0.456494,hit
147,right,2025-12-17 15:01:00.649717+00:00,0.473495,hit
148,right,2025-12-17 15:01:02.646633+00:00,0.511728,hit
149,left,2025-12-17 15:01:07.650524+00:00,0.459237,hit
150,right,2025-12-17 15:01:14.651354+00:00,0.48655,hit
151,left,2025-12-17 15:01:16.648266+00:00,0.517779,hit
152,left,2025-12-17 15:01:20.647903+00:00,0.434924,hit
153,left,2025-12-17 15:01:27.648710+00:00,0.505077,hit
154,right,2025-12-17 15:01:34.649536+00:00,0.038892,hit
155,right,2025-12-17 15:01:39.653427+00:00,0.471155,hit
156,right,2025-12-17 15:01:43.653064+00:00,0.472592,hit
157,left,2025-12-17 15:01:45.649980+00:00,0.470007,hit
158,left,2025-12-17 15:01:50.649608+00:00,0.476854,hit
159,left,2025-12-17 15:01:54.649245+00:00,0.419948,hit
160,right,2025-12-17 15:01:56.651966+00:00,0.388713,hit
161,right,2025-12-17 15:02:00.651604+00:00,0.440383,hit
162,left,2025-12-17 15:02:07.646624+00:00,0.610609,hit
163,right,2025-12-17 15:02:12.650515+00:00,0.470785,hit
164,left,2025-12-17 15:02:16.650152+00:00,0.432499,hit
165,left,2025-12-17 15:02:18.652874+00:00,0.460803,hit
166,right,2025-12-17 15:02:25.647894+00:00,0.397097,hit
167,left,2025-12-17 15:02:30.651785+00:00,0.435846,hit
168,right,2025-12-17 15:02:32.648701+00:00,0.532228,hit
169,right,2025-12-17 15:02:34.651422+00:00,0.455967,hit
170,right,2025-12-17 15:02:38.651059+00:00,0.417357,hit
171,right,2025-12-17 15:02:45.651867+00:00,0.425844,hit
172,left,2025-12-17 15:02:52.652692+00:00,0.480241,hit
173,left,2025-12-17 15:02:57.644991+00:00,0.489157,hit
174,left,2025-12-17 15:02:59.647712+00:00,0.533219,hit
175,right,2025-12-17 15:03:04.651604+00:00,0.439543,hit
176,left,2025-12-17 15:03:08.651241+00:00,0.401748,hit
177,right,2025-12-17 15:03:12.650878+00:00,0.463349,hit
178,left,2025-12-17 15:03:16.650515+00:00,0.42028,hit
179,left,2025-12-17 15:03:18.653241+00:00,0.448149,hit
180,right,2025-12-17 15:03:25.648257+00:00,0.489942,hit
181,right,2025-12-17 15:03:27.645173+00:00,0.476993,hit
182,left,2025-12-17 15:03:34.651785+00:00,0.408921,hit
183,right,2025-12-17 15:03:39.649889+00:00,0.420427,hit
184,left,2025-12-17 15:03:44.647975+00:00,0.197082,hit
185,right,2025-12-17 15:03:46.650697+00:00,0.465901,hit
186,right,2025-12-17 15:03:51.648801+00:00,0.415117,hit
187,right,2025-12-17 15:03:58.649608+00:00,0.424915,hit
188,left,2025-12-17 15:04:05.650415+00:00,0.480604,hit
189,right,2025-12-17 15:04:09.650071+00:00,0.444044,hit
190,left,2025-12-17 15:04:11.646987+00:00,0.502685,hit
191,left,2025-12-17 15:04:16.650878+00:00,0.448127,hit
192,left,2025-12-17 15:04:20.647813+00:00,0.531097,hit
193,right,2025-12-17 15:04:22.650534+00:00,0.476113,hit
194,right,2025-12-17 15:04:26.650171+00:00,0.428702,hit
195,none,,,false_positive
195,right,2025-12-17 15:04:31.654089+00:00,1.438296,hit
196,left,2025-12-17 15:04:35.653722+00:00,0.423758,hit
197,left,2025-12-17 15:04:40.645999+00:00,0.478319,hit
198,right,2025-12-17 15:04:47.652634+00:00,0.42087,hit
199,left,2025-12-17 15:04:54.647631+00:00,0.564603,hit
