trial,side,scheduled_timestamp_utc,actual_onset_timestamp_utc,response_timestamp_utc,RT_seconds,resp_status,scheduled_offset_s,actual_onset_offset_s,response_offset_s
2,left,2025-12-17 12:17:40.765041,2025-12-17 12:17:40.765041,2025-12-17 12:17:41.359901,0.59486,hit,3.999637,3.999637,4.594497
3,right,2025-12-17 12:17:47.765848,2025-12-17 12:17:47.765848,2025-12-17 12:17:48.342858,0.57701,hit,11.000444,11.000444,11.577454
4,right,2025-12-17 12:17:49.768569,2025-12-17 12:17:49.768569,2025-12-17 12:17:50.299106,0.530537,hit,13.003165,13.003165,13.533702
5,left,2025-12-17 12:17:54.766674,2025-12-17 12:17:54.766674,2025-12-17 12:17:55.620393,0.853719,hit,18.00127,18.00127,18.854989000000003
6,left,2025-12-17 12:17:56.763590,2025-12-17 12:17:56.763590,2025-12-17 12:17:57.302629,0.539039,hit,19.998186,19.998186,20.537225
7,right,2025-12-17 12:18:00.763227,2025-12-17 12:18:00.763227,2025-12-17 12:18:01.198465,0.435238,hit,23.997823,23.997823,24.433061000000002
8,right,2025-12-17 12:18:05.767118,2025-12-17 12:18:05.767118,2025-12-17 12:18:06.248201,0.481083,hit,29.001714,29.001714,29.482797
9,left,2025-12-17 12:18:07.769844,2025-12-17 12:18:07.769844,2025-12-17 12:18:08.331119,0.561275,hit,31.00444,31.00444,31.565714999999997
10,left,2025-12-17 12:18:12.762139,2025-12-17 12:18:12.762139,2025-12-17 12:18:13.323342,0.561203,hit,35.996735,35.996735,36.557938
11,right,2025-12-17 12:18:17.766030,2025-12-17 12:18:17.766030,2025-12-17 12:18:18.226637,0.460607,hit,41.000626,41.000626,41.461233
12,right,2025-12-17 12:18:19.768751,2025-12-17 12:18:19.768751,2025-12-17 12:18:20.299376,0.530625,hit,43.003347,43.003347,43.533972
13,left,2025-12-17 12:18:26.763771,2025-12-17 12:18:26.763771,2025-12-17 12:18:27.331584,0.567813,hit,49.998367,49.998367,50.56618
14,right,2025-12-17 12:18:33.764579,2025-12-17 12:18:33.764579,2025-12-17 12:18:34.233597,0.469018,hit,56.999175,56.999175,57.468193
15,left,2025-12-17 12:18:37.764216,2025-12-17 12:18:37.764216,2025-12-17 12:18:38.357772,0.593556,hit,60.998812,60.998812,61.592368
16,right,2025-12-17 12:18:41.769663,2025-12-17 12:18:41.769663,2025-12-17 12:18:42.265251,0.495588,hit,65.004259,65.004259,65.499847
17,left,2025-12-17 12:18:46.761957,2025-12-17 12:18:46.761957,2025-12-17 12:18:47.366473,0.604516,hit,69.996553,69.996553,70.60106900000001
18,left,2025-12-17 12:18:53.768569,2025-12-17 12:18:53.768569,2025-12-17 12:18:54.337757,0.569188,hit,77.003165,77.003165,77.57235299999999
19,left,2025-12-17 12:18:57.768207,2025-12-17 12:18:57.768207,2025-12-17 12:18:58.316474,0.548267,hit,81.002803,81.002803,81.55107
20,right,2025-12-17 12:18:59.765123,2025-12-17 12:18:59.765123,2025-12-17 12:19:00.303150,0.538027,hit,82.999719,82.999719,83.537746
21,left,2025-12-17 12:19:01.767844,2025-12-17 12:19:01.767844,2025-12-17 12:19:02.331971,0.564127,hit,85.00244,85.00244,85.566567
22,right,2025-12-17 12:19:08.762864,2025-12-17 12:19:08.762864,2025-12-17 12:19:09.279579,0.516715,hit,91.99746,91.99746,92.51417500000001
23,right,2025-12-17 12:19:12.762501,2025-12-17 12:19:12.762501,2025-12-17 12:19:13.430205,0.667704,hit,95.997097,95.997097,96.664801
24,none,2025-12-17 12:19:14.909569,2025-12-17 12:19:14.909569,,,false_positive,98.144165,98.144165,
24,right,2025-12-17 12:19:17.766393,2025-12-17 12:19:17.766393,2025-12-17 12:19:18.244119,0.477726,hit,101.000989,101.000989,101.47871500000001
25,left,2025-12-17 12:19:19.769114,2025-12-17 12:19:19.769114,2025-12-17 12:19:20.345533,0.576419,hit,103.00371,103.00371,103.580129
26,right,2025-12-17 12:19:24.767223,2025-12-17 12:19:24.767223,2025-12-17 12:19:25.246934,0.479711,hit,108.001819,108.001819,108.48152999999999
27,right,2025-12-17 12:19:26.764134,2025-12-17 12:19:26.764134,2025-12-17 12:19:27.307885,0.543751,hit,109.99873,109.99873,110.542481
28,right,2025-12-17 12:19:30.763771,2025-12-17 12:19:30.763771,2025-12-17 12:19:31.293913,0.530142,hit,113.998367,113.998367,114.528509
29,left,2025-12-17 12:19:35.767662,2025-12-17 12:19:35.767662,2025-12-17 12:19:36.347668,0.580006,hit,119.002258,119.002258,119.582264
30,right,2025-12-17 12:19:42.762683,2025-12-17 12:19:42.762683,2025-12-17 12:19:43.336688,0.574005,hit,125.997279,125.997279,126.571284
31,left,2025-12-17 12:19:49.769295,2025-12-17 12:19:49.769295,2025-12-17 12:19:50.405251,0.635956,hit,133.003891,133.003891,133.639847
32,left,2025-12-17 12:19:53.768932,2025-12-17 12:19:53.768932,2025-12-17 12:19:54.356089,0.587157,hit,137.003528,137.003528,137.59068499999998
33,right,2025-12-17 12:19:58.767041,2025-12-17 12:19:58.767041,2025-12-17 12:19:59.303330,0.536289,hit,142.001637,142.001637,142.537926
34,right,2025-12-17 12:20:05.767844,2025-12-17 12:20:05.767844,2025-12-17 12:20:06.360781,0.592937,hit,149.00244,149.00244,149.595377
35,left,2025-12-17 12:20:10.765948,2025-12-17 12:20:10.765948,2025-12-17 12:20:11.374887,0.608939,hit,154.000544,154.000544,154.60948299999998
36,left,2025-12-17 12:20:17.766756,2025-12-17 12:20:17.766756,2025-12-17 12:20:18.322265,0.555509,hit,161.001352,161.001352,161.556861
37,left,2025-12-17 12:20:21.766393,2025-12-17 12:20:21.766393,2025-12-17 12:20:22.315253,0.54886,hit,165.000989,165.000989,165.549849
38,right,2025-12-17 12:20:23.769114,2025-12-17 12:20:23.769114,2025-12-17 12:20:24.296454,0.52734,hit,167.00371,167.00371,167.53105000000002
39,right,2025-12-17 12:20:27.768751,2025-12-17 12:20:27.768751,2025-12-17 12:20:28.400013,0.631262,hit,171.003347,171.003347,171.63460899999998
45,none,2025-12-17 12:20:50.718240,2025-12-17 12:20:50.718240,,,false_positive,193.952836,193.952836,
46,none,2025-12-17 12:20:56.487419,2025-12-17 12:20:56.487419,,,false_positive,199.722015,199.722015,
68,none,2025-12-17 12:22:38.735430,2025-12-17 12:22:38.735430,,,false_positive,301.970026,301.970026,
153,none,2025-12-17 12:29:00.552486,2025-12-17 12:29:00.552486,,,false_positive,683.787082,683.787082,
