trial,side,scheduled_timestamp_utc,actual_onset_timestamp_utc,response_timestamp_utc,RT_seconds,resp_status,scheduled_offset_s,actual_onset_offset_s,response_offset_s
2,left,2025-12-17 14:04:17.386920,2025-12-17 14:04:17.386920,,,miss,3.999637,3.999637,
3,right,2025-12-17 14:04:24.384714,2025-12-17 14:04:24.384714,2025-12-17 14:04:25.174041000,0.789327,hit,10.997431,10.997431,11.786758
4,right,2025-12-17 14:04:26.389293,2025-12-17 14:04:26.389293,2025-12-17 14:04:27.148426000,0.759133,hit,13.00201,13.00201,13.761143
5,left,2025-12-17 14:04:31.387397,2025-12-17 14:04:31.387397,2025-12-17 14:04:32.496875000,1.109478,hit,18.000114,18.000114,19.109592
6,left,2025-12-17 14:04:33.384313,2025-12-17 14:04:33.384313,2025-12-17 14:04:34.035947000,0.651634,hit,19.99703,19.99703,20.648664
7,right,2025-12-17 14:04:37.391617,2025-12-17 14:04:37.391617,2025-12-17 14:04:37.923231000,0.531614,hit,24.004334,24.004334,24.535948
8,right,2025-12-17 14:04:42.383889,2025-12-17 14:04:42.383889,2025-12-17 14:04:42.839915000,0.456026,hit,28.996606,28.996606,29.452632
9,left,2025-12-17 14:04:44.386610,2025-12-17 14:04:44.386610,2025-12-17 14:04:44.998479000,0.611869,hit,30.999327,30.999327,31.611196
10,left,2025-12-17 14:04:49.390524,2025-12-17 14:04:49.390524,2025-12-17 14:04:50.023146000,0.632622,hit,36.003241,36.003241,36.635863
11,right,2025-12-17 14:04:54.388610,2025-12-17 14:04:54.388610,2025-12-17 14:04:55.013537000,0.624927,hit,41.001327,41.001327,41.626254
12,right,2025-12-17 14:04:56.385522,2025-12-17 14:04:56.385522,2025-12-17 14:04:56.979581000,0.594059,hit,42.998239,42.998239,43.592298
13,left,2025-12-17 14:05:03.386352,2025-12-17 14:05:03.386352,2025-12-17 14:05:04.166511000,0.780159,hit,49.999069,49.999069,50.779227999999996
14,right,2025-12-17 14:05:10.387154,2025-12-17 14:05:10.387154,2025-12-17 14:05:10.902795000,0.515641,hit,56.999871,56.999871,57.515512
15,left,2025-12-17 14:05:14.388505,2025-12-17 14:05:14.388505,2025-12-17 14:05:14.932661000,0.544156,hit,61.001222,61.001222,61.545378
16,right,2025-12-17 14:05:18.383630,2025-12-17 14:05:18.383630,2025-12-17 14:05:18.859855000,0.476225,hit,64.996347,64.996347,65.472572
17,left,2025-12-17 14:05:23.387544,2025-12-17 14:05:23.387544,2025-12-17 14:05:23.882355000,0.494811,hit,70.000261,70.000261,70.495072
18,left,2025-12-17 14:05:30.388351,2025-12-17 14:05:30.388351,2025-12-17 14:05:30.883776000,0.495425,hit,77.001068,77.001068,77.496493
19,left,2025-12-17 14:05:34.387988,2025-12-17 14:05:34.387988,2025-12-17 14:05:34.859156000,0.471168,hit,81.000705,81.000705,81.471873
20,right,2025-12-17 14:05:36.390709,2025-12-17 14:05:36.390709,2025-12-17 14:05:36.911220000,0.520511,hit,83.003426,83.003426,83.523937
21,left,2025-12-17 14:05:38.393435,2025-12-17 14:05:38.393435,2025-12-17 14:05:38.958490000,0.565055,hit,85.006152,85.006152,85.571207
22,right,2025-12-17 14:05:45.387950,2025-12-17 14:05:45.387950,2025-12-17 14:05:45.880888000,0.492938,hit,92.000667,92.000667,92.493605
23,right,2025-12-17 14:05:49.387760,2025-12-17 14:05:49.387760,2025-12-17 14:05:49.881658000,0.493898,hit,96.000477,96.000477,96.494375
24,right,2025-12-17 14:05:54.391655,2025-12-17 14:05:54.391655,2025-12-17 14:05:54.973324000,0.581669,hit,101.004372,101.004372,101.58604100000001
25,left,2025-12-17 14:05:56.388567,2025-12-17 14:05:56.388567,2025-12-17 14:05:56.890535000,0.501968,hit,103.001284,103.001284,103.503252
26,right,2025-12-17 14:06:01.386671,2025-12-17 14:06:01.386671,2025-12-17 14:06:01.841801000,0.45513,hit,107.999388,107.999388,108.454518
27,right,2025-12-17 14:06:03.383588,2025-12-17 14:06:03.383588,2025-12-17 14:06:03.837649000,0.454061,hit,109.996305,109.996305,110.450366
28,right,2025-12-17 14:06:07.389012,2025-12-17 14:06:07.389012,2025-12-17 14:06:07.887721999,0.49871,hit,114.001729,114.001729,114.500439
29,left,2025-12-17 14:06:12.387116,2025-12-17 14:06:12.387116,2025-12-17 14:06:12.931819000,0.544703,hit,118.999833,118.999833,119.544536
30,right,2025-12-17 14:06:19.387941,2025-12-17 14:06:19.387941,2025-12-17 14:06:20.092090000,0.704149,hit,126.000658,126.000658,126.704807
31,left,2025-12-17 14:06:26.388748,2025-12-17 14:06:26.388748,2025-12-17 14:06:26.887931000,0.499183,hit,133.001465,133.001465,133.50064799999998
32,left,2025-12-17 14:06:30.388386,2025-12-17 14:06:30.388386,2025-12-17 14:06:30.856704000,0.468318,hit,137.001103,137.001103,137.469421
33,right,2025-12-17 14:06:35.386490,2025-12-17 14:06:35.386490,2025-12-17 14:06:35.886420000,0.49993,hit,141.999207,141.999207,142.49913700000002
34,right,2025-12-17 14:06:42.387297,2025-12-17 14:06:42.387297,2025-12-17 14:06:42.922447000,0.53515,hit,149.000014,149.000014,149.53516399999998
35,left,2025-12-17 14:06:47.385401,2025-12-17 14:06:47.385401,2025-12-17 14:06:47.890396999,0.504996,hit,153.998118,153.998118,154.503114
36,left,2025-12-17 14:06:54.392018,2025-12-17 14:06:54.392018,2025-12-17 14:06:54.886639000,0.494621,hit,161.004735,161.004735,161.499356
37,left,2025-12-17 14:06:58.391655,2025-12-17 14:06:58.391655,2025-12-17 14:06:58.868838000,0.477183,hit,165.004372,165.004372,165.481555
38,right,2025-12-17 14:07:00.388567,2025-12-17 14:07:00.388567,2025-12-17 14:07:00.906114000,0.517547,hit,167.001284,167.001284,167.518831
39,right,2025-12-17 14:07:04.388204,2025-12-17 14:07:04.388204,2025-12-17 14:07:04.866309000,0.478105,hit,171.000921,171.000921,171.479026
40,left,2025-12-17 14:07:06.390925,2025-12-17 14:07:06.390925,2025-12-17 14:07:06.857775000,0.46685,hit,173.003642,173.003642,173.470492
41,left,2025-12-17 14:07:13.385946,2025-12-17 14:07:13.385946,2025-12-17 14:07:13.913558000,0.527612,hit,179.998663,179.998663,180.526275
42,right,2025-12-17 14:07:15.388667,2025-12-17 14:07:15.388667,2025-12-17 14:07:16.058591000,0.669924,hit,182.001384,182.001384,182.671308
