trial,side,scheduled_timestamp_utc,actual_onset_timestamp_utc,response_timestamp_utc,RT_seconds,resp_status
1,left,2025-12-17 11:37:42.834749,2025-12-17 11:37:42.841361,2025-12-17 11:37:43.909817,1.068456,hit
2,left,2025-12-17 11:37:46.834749,2025-12-17 11:37:46.841176,2025-12-17 11:37:47.415787,0.574611,hit
3,right,2025-12-17 11:37:53.834749,2025-12-17 11:37:53.845086,2025-12-17 11:37:54.344951,0.499865,hit
4,right,2025-12-17 11:37:55.834749,2025-12-17 11:37:55.842002,2025-12-17 11:37:56.404966,0.562964,hit
5,left,2025-12-17 11:38:00.834749,2025-12-17 11:38:00.840106,2025-12-17 11:38:01.308186,0.468080,hit
6,left,2025-12-17 11:38:02.834749,2025-12-17 11:38:02.842832,2025-12-17 11:38:03.329058,0.486226,hit
7,right,2025-12-17 11:38:06.834749,2025-12-17 11:38:06.842464,2025-12-17 11:38:07.296754,0.454289,hit
8,right,2025-12-17 11:38:11.834749,2025-12-17 11:38:11.840551,2025-12-17 11:38:12.391723,0.551173,hit
9,left,2025-12-17 11:38:13.834749,2025-12-17 11:38:13.843272,2025-12-17 11:38:14.446561,0.603289,hit
10,left,2025-12-17 11:38:18.834749,2025-12-17 11:38:18.841376,2025-12-17 11:38:19.333067,0.491691,hit
11,right,2025-12-17 11:38:23.834749,2025-12-17 11:38:23.845272,2025-12-17 11:38:24.278844,0.433572,hit
12,right,2025-12-17 11:38:25.834749,2025-12-17 11:38:25.842183,2025-12-17 11:38:26.317314,0.475131,hit
13,left,2025-12-17 11:38:32.834749,2025-12-17 11:38:32.843013,2025-12-17 11:38:33.371577,0.528563,hit
14,right,2025-12-17 11:38:39.834749,2025-12-17 11:38:39.843816,2025-12-17 11:38:40.306657,0.462841,hit
15,left,2025-12-17 11:38:43.834749,2025-12-17 11:38:43.843453,2025-12-17 11:38:44.334185,0.490732,hit
16,right,2025-12-17 11:38:47.834749,2025-12-17 11:38:47.843090,2025-12-17 11:38:48.343848,0.500757,hit
17,left,2025-12-17 11:38:52.834749,2025-12-17 11:38:52.841195,2025-12-17 11:38:53.429681,0.588487,hit
18,left,2025-12-17 11:38:59.834749,2025-12-17 11:38:59.842002,2025-12-17 11:39:00.366393,0.524391,hit
19,left,2025-12-17 11:39:03.834749,2025-12-17 11:39:03.841639,2025-12-17 11:39:04.350622,0.508983,hit
20,right,2025-12-17 11:39:05.834749,2025-12-17 11:39:05.844360,2025-12-17 11:39:06.490848,0.646488,hit
21,left,2025-12-17 11:39:07.834749,2025-12-17 11:39:07.841276,2025-12-17 11:39:08.454376,0.613100,hit
22,right,2025-12-17 11:39:14.834749,2025-12-17 11:39:14.842102,2025-12-17 11:39:15.344543,0.502442,hit
23,right,2025-12-17 11:39:18.834749,2025-12-17 11:39:18.841739,2025-12-17 11:39:19.312203,0.470464,hit
24,right,2025-12-17 11:39:23.834749,2025-12-17 11:39:23.845634,2025-12-17 11:39:24.296011,0.450377,hit
25,left,2025-12-17 11:39:25.834749,2025-12-17 11:39:25.842546,2025-12-17 11:39:26.428725,0.586179,hit
26,right,2025-12-17 11:39:30.834749,2025-12-17 11:39:30.840650,2025-12-17 11:39:31.300987,0.460336,hit
27,right,2025-12-17 11:39:32.834749,2025-12-17 11:39:32.837566,2025-12-17 11:39:33.255304,0.417737,hit
28,right,2025-12-17 11:39:36.834749,2025-12-17 11:39:36.843013,2025-12-17 11:39:37.269485,0.426472,hit
29,left,2025-12-17 11:39:41.834749,2025-12-17 11:39:41.841095,2025-12-17 11:39:42.327500,0.486405,hit
30,right,2025-12-17 11:39:48.834749,2025-12-17 11:39:48.841920,2025-12-17 11:39:49.343567,0.501647,hit
31,left,2025-12-17 11:39:55.834749,2025-12-17 11:39:55.842727,2025-12-17 11:39:56.493609,0.650881,hit
32,left,2025-12-17 11:39:59.834749,2025-12-17 11:39:59.842365,2025-12-17 11:40:00.302534,0.460169,hit
33,right,2025-12-17 11:40:04.834749,2025-12-17 11:40:04.840469,2025-12-17 11:40:05.276262,0.435793,hit
34,right,2025-12-17 11:40:11.834749,2025-12-17 11:40:11.841276,2025-12-17 11:40:12.303451,0.462175,hit
35,left,2025-12-17 11:40:16.834749,2025-12-17 11:40:16.839381,2025-12-17 11:40:17.335340,0.495959,hit
36,left,2025-12-17 11:40:23.834749,2025-12-17 11:40:23.840188,2025-12-17 11:40:24.368358,0.528171,hit
37,left,2025-12-17 11:40:27.834749,2025-12-17 11:40:27.845634,2025-12-17 11:40:28.272885,0.427251,hit
38,right,2025-12-17 11:40:29.834749,2025-12-17 11:40:29.842546,2025-12-17 11:40:30.293711,0.451165,hit
39,right,2025-12-17 11:40:33.834749,2025-12-17 11:40:33.842183,2025-12-17 11:40:34.294642,0.452459,hit
40,left,2025-12-17 11:40:35.834749,2025-12-17 11:40:35.844904,2025-12-17 11:40:36.314438,0.469533,hit
41,left,2025-12-17 11:40:42.834749,2025-12-20 07:25:15.428019,2025-12-17 11:40:43.317636,-243872.110382,hit
42,right,2025-12-17 11:40:44.834749,2025-12-20 07:25:15.424935,2025-12-17 11:40:45.278815,-243870.146120,hit
43,right,2025-12-17 11:40:49.834749,2025-12-20 07:25:15.426159,2025-12-17 11:40:50.395292,-243865.030868,hit
44,left,2025-12-17 11:40:51.834749,2025-12-20 07:25:15.428880,2025-12-17 11:40:52.315563,-243863.113317,hit
45,right,2025-12-17 11:40:58.834749,2025-12-20 07:25:15.426568,2025-12-17 11:40:59.286658,-243856.139909,hit
46,left,2025-12-17 11:41:02.834749,2025-12-20 07:25:15.426205,2025-12-17 11:41:03.246930,-243852.179275,hit
47,right,2025-12-17 11:41:06.834749,2025-12-20 07:25:15.425842,2025-12-17 11:41:07.253989,-243848.171853,hit
48,left,2025-12-17 11:41:11.834749,2025-12-20 07:25:15.427066,2025-12-17 11:41:12.288271,-243843.138795,hit
49,right,2025-12-17 11:41:16.834749,2025-12-20 07:25:15.427837,2025-12-17 11:41:17.275069,-243838.152768,hit
50,right,2025-12-17 11:41:20.834749,2025-12-20 07:25:15.427474,2025-12-17 11:41:21.265208,-243834.162266,hit
51,left,2025-12-17 11:41:27.834749,2025-12-20 07:25:15.425615,2025-12-17 11:41:28.300052,-243827.125563,hit
52,left,2025-12-17 11:41:29.834749,2025-12-20 07:25:15.428336,2025-12-17 11:41:30.287409,-243825.140927,hit
53,left,2025-12-17 11:41:34.834749,2025-12-20 07:25:15.429107,2025-12-17 11:41:35.328973,-243820.100134,hit
54,right,2025-12-17 11:41:41.834749,2025-12-20 07:25:15.427248,2025-12-17 11:41:42.340169,-243813.087079,hit
55,left,2025-12-17 11:41:45.834749,2025-12-20 07:25:15.426885,2025-12-17 11:41:46.377053,-243809.049831,hit
56,right,2025-12-17 11:41:47.834749,2025-12-20 07:25:15.429606,2025-12-17 11:41:48.291048,-243807.138558,hit
57,left,2025-12-17 11:41:52.834749,2025-12-20 07:25:15.424572,2025-12-17 11:41:53.357395,-243802.067177,hit
58,right,2025-12-17 11:41:59.834749,2025-12-20 07:25:15.428518,2025-12-17 11:42:00.378533,-243795.049984,hit
59,left,2025-12-17 11:42:06.834749,2025-12-20 07:25:15.426205,2025-12-17 11:42:07.378542,-243788.047663,hit
60,left,2025-12-17 11:42:10.834749,2025-12-20 07:25:15.425366,2025-12-17 11:42:11.347963,-243784.077402,hit
61,left,2025-12-17 11:42:12.834749,2025-12-20 07:25:15.428087,2025-12-17 11:42:13.285453,-243782.142633,hit
62,right,2025-12-17 11:42:14.834749,2025-12-20 07:25:15.425003,2025-12-17 11:42:15.306054,-243780.118949,hit
63,right,2025-12-17 11:42:18.834749,2025-12-20 07:25:15.424640,2025-12-17 11:42:19.314127,-243776.110513,hit
64,right,2025-12-17 11:42:23.834749,2025-12-20 07:25:15.425388,2025-12-17 11:42:24.284464,-243771.140924,hit
65,right,2025-12-17 11:42:25.834749,2025-12-20 07:25:15.428109,2025-12-17 11:42:26.302497,-243769.125612,hit
66,left,2025-12-17 11:42:32.834749,2025-12-20 07:25:15.426273,2025-12-17 11:42:33.378587,-243762.047686,hit
67,left,2025-12-17 11:42:37.834749,2025-12-20 07:25:15.427021,2025-12-17 11:42:38.432433,-243756.994588,hit
68,right,2025-12-17 11:42:44.834749,2025-12-20 07:25:15.425184,2025-12-17 11:42:45.303962,-243750.121222,hit
69,right,2025-12-17 11:42:48.834749,2025-12-20 07:25:15.424821,2025-12-17 11:42:49.275056,-243746.149765,hit
70,left,2025-12-17 11:42:52.834749,2025-12-20 07:25:15.424935,2025-12-17 11:42:53.308277,-243742.116658,hit
71,right,2025-12-17 11:42:57.834749,2025-12-20 07:25:15.425207,2025-12-17 11:42:58.351291,-243737.073916,hit
72,left,2025-12-17 11:42:59.834749,2025-12-20 07:25:15.427928,2025-12-17 11:43:00.352855,-243735.075073,hit
73,left,2025-12-17 11:43:03.834749,2025-12-20 07:25:15.427565,2025-12-17 11:43:04.378102,-243731.049464,hit
74,left,2025-12-17 11:43:08.834749,2025-12-20 07:25:15.428812,2025-12-17 11:43:09.397008,-243726.031804,hit
75,right,2025-12-17 11:43:15.834749,2025-12-20 07:25:15.426477,2025-12-17 11:43:16.509571,-243718.916906,hit
76,left,2025-12-17 11:43:17.834749,2025-12-20 07:25:15.429198,2025-12-17 11:43:18.689508,-243716.739690,hit
77,left,2025-12-17 11:43:24.834749,2025-12-20 07:25:15.427361,2025-12-17 11:43:25.376042,-243710.051319,hit
78,right,2025-12-17 11:43:26.834749,2025-12-20 07:25:15.424753,2025-12-17 11:43:27.352470,-243708.072283,hit
79,right,2025-12-17 11:43:31.834749,2025-12-20 07:25:15.425025,2025-12-17 11:43:32.340191,-243703.084835,hit
80,right,2025-12-17 11:43:35.834749,2025-12-20 07:25:15.424663,2025-12-17 11:43:36.294635,-243699.130028,hit
81,right,2025-12-17 11:43:37.834749,2025-12-20 07:25:15.427384,2025-12-17 11:43:38.335956,-243697.091428,hit
82,left,2025-12-17 11:43:42.834749,2025-12-20 07:25:15.428631,2025-12-17 11:43:43.362092,-243692.066538,hit
83,right,2025-12-17 11:43:47.834749,2025-12-20 07:25:15.429379,2025-12-17 11:43:48.392271,-243687.037108,hit
84,left,2025-12-17 11:43:54.834749,2025-12-20 07:25:15.427542,2025-12-17 11:43:55.366215,-243680.061328,hit
85,left,2025-12-17 11:43:58.834749,2025-12-20 07:25:15.427180,2025-12-17 11:43:59.381273,-243676.045907,hit
86,right,2025-12-17 11:44:02.834749,2025-12-20 07:25:15.426817,2025-12-17 11:44:03.301912,-243672.124905,hit
87,left,2025-12-17 11:44:04.834749,2025-12-20 07:25:15.429538,2025-12-17 11:44:05.388240,-243670.041298,hit
88,right,2025-12-17 11:44:11.834749,2025-12-20 07:25:15.427202,2025-12-17 11:44:12.291409,-243663.135793,hit
89,right,2025-12-17 11:44:15.834749,2025-12-20 07:25:15.426386,2025-12-17 11:44:16.279208,-243659.147178,hit
90,left,2025-12-17 11:44:17.834749,2025-12-20 07:25:15.429107,2025-12-17 11:44:18.289312,-243657.139795,hit
91,left,2025-12-17 11:44:21.834749,2025-12-20 07:25:15.428744,2025-12-17 11:44:22.296539,-243653.132205,hit
92,right,2025-12-17 11:44:26.834749,2025-12-20 07:25:15.429493,2025-12-17 11:44:27.290112,-243648.139381,hit
93,right,2025-12-17 11:44:28.834749,2025-12-20 07:25:15.426409,2025-12-17 11:44:29.419410,-243646.006999,hit
94,right,2025-12-17 11:44:35.834749,2025-12-20 07:25:15.424572,2025-12-17 11:44:36.299693,-243639.124879,hit
95,left,2025-12-17 11:44:42.834749,2025-12-20 07:25:15.428041,2025-12-17 11:44:43.407486,-243632.020556,hit
96,left,2025-12-17 11:44:47.834749,2025-12-20 07:25:15.429289,2025-12-17 11:44:48.369015,-243627.060273,hit
97,left,2025-12-17 11:44:54.834749,2025-12-20 07:25:15.426953,2025-12-17 11:44:55.302004,-243620.124949,hit
98,left,2025-12-17 11:44:58.834749,2025-12-20 07:25:15.426590,2025-12-17 11:44:59.364529,-243616.062061,hit
99,left,2025-12-17 11:45:00.834749,2025-12-20 07:25:15.429311,2025-12-17 11:45:01.409959,-243614.019352,hit
100,right,2025-12-17 11:45:05.834749,2025-12-20 07:25:15.424753,2025-12-17 11:45:06.343601,-243609.081152,hit
101,right,2025-12-17 11:45:12.834749,2025-12-20 07:25:15.428223,2025-12-17 11:45:13.368188,-243602.060035,hit
102,right,2025-12-17 11:45:16.834749,2025-12-20 07:25:15.427860,2025-12-17 11:45:17.281791,-243598.146069,hit
103,right,2025-12-17 11:45:18.834749,2025-12-20 07:25:15.424776,2025-12-17 11:45:19.463830,-243595.960945,hit
104,left,2025-12-17 11:45:23.834749,2025-12-20 07:25:15.426023,2025-12-17 11:45:24.389178,-243591.036845,hit
105,right,2025-12-17 11:45:25.834749,2025-12-20 07:25:15.428744,2025-12-17 11:45:26.393515,-243589.035230,hit
106,left,2025-12-17 11:45:30.834749,2025-12-20 07:25:15.429493,2025-12-17 11:45:31.329196,-243584.100297,hit
107,right,2025-12-17 11:45:37.834749,2025-12-20 07:25:15.427656,2025-12-17 11:45:38.480593,-243576.947062,hit
108,left,2025-12-17 11:45:41.834749,2025-12-20 07:25:15.427293,2025-12-17 11:45:42.376438,-243573.050855,hit
109,left,2025-12-17 11:45:48.834749,2025-12-20 07:25:15.424958,2025-12-17 11:45:49.373241,-243566.051716,hit
110,right,2025-12-17 11:45:52.834749,2025-12-20 07:25:15.424595,2025-12-17 11:45:53.435219,-243561.989376,hit
111,left,2025-12-17 11:45:54.834749,2025-12-20 07:25:15.427316,2025-12-17 11:45:55.401822,-243560.025494,hit
112,right,2025-12-17 11:45:59.834749,2025-12-20 07:25:15.428563,2025-12-17 11:46:00.293510,-243555.135053,hit
113,left,2025-12-17 11:46:01.834749,2025-12-20 07:25:15.425479,2025-12-17 11:46:02.400391,-243553.025088,hit
114,left,2025-12-17 11:46:05.834749,2025-12-20 07:25:15.425116,2025-12-17 11:46:06.317453,-243549.107663,hit
115,right,2025-12-17 11:46:07.834749,2025-12-20 07:25:15.427837,2025-12-17 11:46:08.335387,-243547.092450,hit
116,left,2025-12-17 11:46:14.834749,2025-12-20 07:25:15.425502,2025-12-17 11:46:15.309300,-243540.116202,hit
117,right,2025-12-17 11:46:18.834749,2025-12-20 07:25:15.425139,2025-12-17 11:46:19.361259,-243536.063879,hit
118,left,2025-12-17 11:46:23.834749,2025-12-20 07:25:15.426386,2025-12-17 11:46:24.390097,-243531.036289,hit
119,right,2025-12-17 11:46:28.834749,2025-12-20 07:25:15.427134,2025-12-17 11:46:29.314024,-243526.113111,hit
120,right,2025-12-17 11:46:35.834749,2025-12-20 07:25:15.425297,2025-12-17 11:46:36.313483,-243519.111815,hit
121,left,2025-12-17 11:46:39.834749,2025-12-20 07:25:15.424935,2025-12-17 11:46:40.383040,-243515.041894,hit
122,right,2025-12-17 11:46:46.834749,2025-12-20 07:25:15.428880,2025-12-17 11:46:47.416151,-243508.012729,hit
123,left,2025-12-17 11:46:53.834749,2025-12-20 07:25:15.426568,2025-12-17 11:46:54.360082,-243501.066485,hit
124,left,2025-12-17 11:46:58.834749,2025-12-20 07:25:15.427316,2025-12-17 11:46:59.335540,-243496.091776,hit
125,right,2025-12-17 11:47:03.834749,2025-12-20 07:25:15.428563,2025-12-17 11:47:04.437626,-243490.990936,hit
126,left,2025-12-17 11:47:05.834749,2025-12-20 07:25:15.425479,2025-12-17 11:47:06.393023,-243489.032456,hit
127,right,2025-12-17 11:47:09.834749,2025-12-20 07:25:15.425116,2025-12-17 11:47:10.404818,-243485.020299,hit
128,right,2025-12-17 11:47:11.834749,2025-12-20 07:25:15.427837,2025-12-17 11:47:12.463241,-243482.964596,hit
129,left,2025-12-17 11:47:13.834749,2025-12-20 07:25:15.424753,2025-12-17 11:47:14.288050,-243481.136703,hit
130,right,2025-12-17 11:47:17.834749,2025-12-20 07:25:15.424844,2025-12-17 11:47:18.299150,-243477.125694,hit
131,left,2025-12-17 11:47:22.834749,2025-12-20 07:25:15.425139,2025-12-17 11:47:23.348972,-243472.076167,hit
132,left,2025-12-17 11:47:29.834749,2025-12-20 07:25:15.429107,2025-12-17 11:47:30.390147,-243465.038960,hit
133,left,2025-12-17 11:47:33.834749,2025-12-20 07:25:15.428744,2025-12-17 11:47:34.299151,-243461.129594,hit
134,right,2025-12-17 11:47:38.834749,2025-12-20 07:25:15.429493,2025-12-17 11:47:39.272248,-243456.157244,hit
135,right,2025-12-17 11:47:45.834749,2025-12-20 07:25:15.427656,2025-12-17 11:47:46.390409,-243449.037247,hit
136,right,2025-12-17 11:47:47.834749,2025-12-20 07:25:15.424572,2025-12-17 11:47:48.322222,-243447.102350,hit
137,left,2025-12-17 11:47:51.834749,2025-12-20 07:25:15.424663,2025-12-17 11:47:52.300343,-243443.124320,hit
138,left,2025-12-17 11:47:56.834749,2025-12-20 07:25:15.424958,2025-12-17 11:47:57.430226,-243437.994731,hit
139,left,2025-12-17 11:47:58.834749,2025-12-20 07:25:15.427679,2025-12-17 11:47:59.341143,-243436.086536,hit
140,right,2025-12-17 11:48:00.834749,2025-12-20 07:25:15.424595,2025-12-17 11:48:01.297454,-243434.127140,hit
141,right,2025-12-17 11:48:05.834749,2025-12-20 07:25:15.425842,2025-12-17 11:48:06.340197,-243429.085645,hit
142,left,2025-12-17 11:48:12.834749,2025-12-20 07:25:15.429311,2025-12-17 11:48:13.395468,-243422.033844,hit
143,right,2025-12-17 11:48:19.834749,2025-12-20 07:25:15.427474,2025-12-17 11:48:20.301383,-243415.126091,hit
144,right,2025-12-17 11:48:23.834749,2025-12-20 07:25:15.427112,2025-12-17 11:48:24.266305,-243411.160806,hit
145,right,2025-12-17 11:48:28.834749,2025-12-20 07:25:15.428336,2025-12-17 11:48:29.344194,-243406.084142,hit
146,left,2025-12-17 11:48:35.834749,2025-12-20 07:25:15.426023,2025-12-17 11:48:36.417397,-243399.008627,hit
147,right,2025-12-17 11:48:39.834749,2025-12-20 07:25:15.425660,2025-12-17 11:48:40.291061,-243395.134599,hit
148,right,2025-12-17 11:48:41.834749,2025-12-20 07:25:15.428381,2025-12-17 11:48:42.341667,-243393.086714,hit
149,left,2025-12-17 11:48:46.834749,2025-12-20 07:25:15.429130,2025-12-17 11:48:47.390906,-243388.038224,hit
150,right,2025-12-17 11:48:53.834749,2025-12-20 07:25:15.427293,2025-12-17 11:48:54.300622,-243381.126672,hit
151,left,2025-12-17 11:48:55.834749,2025-12-20 07:25:15.428586,2025-12-17 11:48:56.316406,-243379.112180,hit
152,left,2025-12-17 11:48:59.834749,2025-12-20 07:25:15.428223,2025-12-17 11:49:00.302517,-243375.125706,hit
153,left,2025-12-17 11:49:06.834749,2025-12-20 07:25:15.426386,2025-12-17 11:49:07.291407,-243368.134979,hit
154,right,2025-12-17 11:49:13.834749,2025-12-20 07:25:15.429855,2025-12-17 11:49:14.281847,-243361.148008,hit
155,right,2025-12-17 11:49:18.834749,2025-12-20 07:25:15.425297,2025-12-17 11:49:19.323161,-243356.102136,hit
156,right,2025-12-17 11:49:22.834749,2025-12-20 07:25:15.424935,2025-12-17 11:49:23.388127,-243352.036808,hit
157,left,2025-12-17 11:49:24.834749,2025-12-20 07:25:15.427656,2025-12-17 11:49:25.377185,-243350.050471,hit
158,left,2025-12-17 11:49:29.834749,2025-12-20 07:25:15.428404,2025-12-17 11:49:30.348914,-243345.079490,hit
159,left,2025-12-17 11:49:33.834749,2025-12-20 07:25:15.428041,2025-12-17 11:49:34.323533,-243341.104508,hit
160,right,2025-12-17 11:49:35.834749,2025-12-20 07:25:15.424958,2025-12-17 11:49:36.321607,-243339.103350,hit
161,right,2025-12-17 11:49:39.834749,2025-12-20 07:25:15.424595,2025-12-17 11:49:40.309195,-243335.115400,hit
162,left,2025-12-17 11:49:46.834749,2025-12-20 07:25:15.428563,2025-12-17 11:49:47.298282,-243328.130281,hit
163,right,2025-12-17 11:49:51.834749,2025-12-20 07:25:15.429311,2025-12-17 11:49:52.305797,-243323.123514,hit
164,left,2025-12-17 11:49:55.834749,2025-12-20 07:25:15.428948,2025-12-17 11:49:56.583809,-243318.845140,hit
165,left,2025-12-17 11:49:57.834749,2025-12-20 07:25:15.425864,2025-12-17 11:49:58.308219,-243317.117645,hit
166,right,2025-12-17 11:50:04.834749,2025-12-20 07:25:15.429833,2025-12-17 11:50:05.276828,-243310.153004,hit
167,left,2025-12-17 11:50:09.834749,2025-12-20 07:25:15.424776,2025-12-17 11:50:10.359306,-243305.065470,hit
168,right,2025-12-17 11:50:11.834749,2025-12-20 07:25:15.427497,2025-12-17 11:50:12.260336,-243303.167161,hit
169,right,2025-12-17 11:50:13.834749,2025-12-20 07:25:15.424889,2025-12-17 11:50:14.301037,-243301.123853,hit
170,right,2025-12-17 11:50:17.834749,2025-12-20 07:25:15.429855,2025-12-17 11:50:18.370355,-243297.059501,hit
171,right,2025-12-17 11:50:24.834749,2025-12-20 07:25:15.428019,2025-12-17 11:50:25.428374,-243289.999645,hit
172,left,2025-12-17 11:50:31.834749,2025-12-20 07:25:15.425683,2025-12-17 11:50:32.343942,-243283.081741,hit
173,left,2025-12-17 11:50:36.834749,2025-12-20 07:25:15.426930,2025-12-17 11:50:37.384879,-243278.042051,hit
174,left,2025-12-17 11:50:38.834749,2025-12-20 07:25:15.429651,2025-12-17 11:50:39.370669,-243276.058982,hit
175,right,2025-12-17 11:50:43.834749,2025-12-20 07:25:15.424595,2025-12-17 11:50:44.357806,-243271.066789,hit
176,left,2025-12-17 11:50:47.834749,2025-12-20 07:25:15.424708,2025-12-17 11:50:48.310802,-243267.113906,hit
177,right,2025-12-17 11:50:51.834749,2025-12-20 07:25:15.429674,2025-12-17 11:50:52.446421,-243262.983253,hit
178,left,2025-12-17 11:50:55.834749,2025-12-20 07:25:15.429311,2025-12-17 11:50:56.421562,-243259.007749,hit
179,left,2025-12-17 11:50:57.834749,2025-12-20 07:25:15.426227,2025-12-17 11:50:58.373421,-243257.052806,hit
180,right,2025-12-17 11:51:04.834749,2025-12-20 07:25:15.429243,2025-12-17 11:51:05.427730,-243250.001513,hit
181,right,2025-12-17 11:51:06.834749,2025-12-20 07:25:15.426159,2025-12-17 11:51:07.392640,-243248.033519,hit
182,left,2025-12-17 11:51:13.834749,2025-12-20 07:25:15.424776,2025-12-17 11:51:14.464201,-243240.960575,hit
183,right,2025-12-17 11:51:18.834749,2025-12-20 07:25:15.425071,2025-12-17 11:51:19.469656,-243235.955415,hit
184,left,2025-12-17 11:51:23.834749,2025-12-20 07:25:15.425842,2025-12-17 11:51:24.457959,-243230.967883,hit
185,right,2025-12-17 11:51:25.834749,2025-12-20 07:25:15.429016,2025-12-17 11:51:26.403625,-243229.025391,hit
186,right,2025-12-17 11:51:30.834749,2025-12-20 07:25:15.429787,2025-12-17 11:51:31.334658,-243224.095129,hit
187,right,2025-12-17 11:51:37.834749,2025-12-20 07:25:15.426998,2025-12-17 11:51:38.360760,-243217.066238,hit
188,left,2025-12-17 11:51:44.834749,2025-12-20 07:25:15.424663,2025-12-17 11:51:45.621896,-243209.802767,hit
189,right,2025-12-17 11:51:48.834749,2025-12-20 07:25:15.424776,2025-12-17 11:51:49.356804,-243206.067972,hit
190,left,2025-12-17 11:51:50.834749,2025-12-20 07:25:15.426568,2025-12-17 11:51:51.374532,-243204.052035,hit
191,left,2025-12-17 11:51:55.834749,2025-12-20 07:25:15.427792,2025-12-17 11:51:56.423940,-243199.003852,hit
192,left,2025-12-17 11:51:59.834749,2025-12-20 07:25:15.427429,2025-12-17 11:52:00.519430,-243194.907999,hit
193,right,2025-12-17 11:52:01.834749,2025-12-20 07:25:15.429674,2025-12-17 11:52:02.448269,-243192.981405,hit
194,right,2025-12-17 11:52:05.834749,2025-12-20 07:25:15.429787,2025-12-17 11:52:06.339364,-243189.090424,hit
195,right,2025-12-17 11:52:10.834749,2025-12-20 07:25:15.424753,2025-12-17 11:52:11.344723,-243184.080030,hit
196,left,2025-12-17 11:52:14.834749,2025-12-20 07:25:15.424844,2025-12-17 11:52:15.391326,-243180.033518,hit
197,left,2025-12-17 11:52:19.834749,2025-12-20 07:25:15.425615,2025-12-17 11:52:20.509925,-243174.915690,hit
198,right,2025-12-17 11:52:26.834749,2025-12-20 07:25:15.429107,2025-12-17 11:52:27.309061,-243168.120046,hit
199,left,2025-12-17 11:52:33.834749,2025-12-20 07:25:15.427248,2025-12-17 11:52:34.360138,-243161.067110,hit
