trial,side,scheduled_timestamp_utc,actual_onset_timestamp_utc,response_timestamp_utc,RT_seconds,resp_status
1,left,2025-12-17 10:56:59.368747,2025-12-17 10:56:59.378716,2025-12-17 10:57:00.124815,0.746099,hit
2,left,2025-12-17 10:57:03.368747,2025-12-17 10:57:03.378353,2025-12-17 10:57:03.798329,0.419976,hit
3,right,2025-12-17 10:57:10.368747,2025-12-17 10:57:10.373374,2025-12-17 10:57:10.976764,0.603391,hit
4,right,2025-12-17 10:57:12.368747,2025-12-17 10:57:12.376095,2025-12-17 10:57:13.008140,0.632045,hit
5,left,2025-12-17 10:57:17.368747,2025-12-17 10:57:17.379986,2025-12-17 10:57:17.960146,0.580160,hit
6,left,2025-12-17 10:57:19.368747,2025-12-17 10:57:19.376902,2025-12-17 10:57:19.946187,0.569285,hit
7,right,2025-12-17 10:57:23.368747,2025-12-17 10:57:23.376539,2025-12-17 10:57:23.872900,0.496361,hit
8,right,2025-12-17 10:57:28.368747,2025-12-17 10:57:28.374644,2025-12-17 10:57:28.885869,0.511226,hit
9,left,2025-12-17 10:57:30.368747,2025-12-17 10:57:30.377365,2025-12-17 10:57:30.994739,0.617374,hit
10,left,2025-12-17 10:57:35.368747,2025-12-17 10:57:35.375451,2025-12-17 10:57:35.856007,0.480556,hit
11,right,2025-12-17 10:57:40.368747,2025-12-17 10:57:40.373555,2025-12-17 10:57:40.879718,0.506163,hit
12,right,2025-12-17 10:57:42.368747,2025-12-17 10:57:42.376276,2025-12-17 10:57:42.944984,0.568708,hit
13,left,2025-12-17 10:57:49.368747,2025-12-17 10:57:49.372654,2025-12-17 10:57:49.876432,0.503779,hit
14,right,2025-12-17 10:57:56.368747,2025-12-17 10:57:56.379266,2025-12-17 10:57:56.875141,0.495875,hit
15,left,2025-12-17 10:58:00.368747,2025-12-17 10:58:00.378903,2025-12-17 10:58:00.921873,0.542969,hit
16,right,2025-12-17 10:58:04.368747,2025-12-17 10:58:04.378541,2025-12-17 10:58:04.806981,0.428441,hit
17,left,2025-12-17 10:58:09.368747,2025-12-17 10:58:09.378919,2025-12-17 10:58:09.876448,0.497529,hit
18,left,2025-12-17 10:58:16.368747,2025-12-17 10:58:16.376570,2025-12-17 10:58:16.871610,0.495040,hit
19,left,2025-12-17 10:58:20.368747,2025-12-17 10:58:20.370398,2025-12-17 10:58:20.843310,0.472913,hit
20,right,2025-12-17 10:58:22.368747,2025-12-17 10:58:22.378928,2025-12-17 10:58:22.929193,0.550265,hit
21,left,2025-12-17 10:58:24.368747,2025-12-17 10:58:24.375844,2025-12-17 10:58:24.895527,0.519683,hit
22,right,2025-12-17 10:58:31.368747,2025-12-17 10:58:31.376647,2025-12-17 10:58:31.864362,0.487715,hit
23,right,2025-12-17 10:58:35.368747,2025-12-17 10:58:35.376284,2025-12-17 10:58:35.810557,0.434272,hit
24,right,2025-12-17 10:58:40.368747,2025-12-17 10:58:40.374388,2025-12-17 10:58:40.847541,0.473152,hit
25,left,2025-12-17 10:58:42.368747,2025-12-17 10:58:42.373662,2025-12-17 10:58:43.014172,0.640510,hit
26,right,2025-12-17 10:58:47.368747,2025-12-17 10:58:47.377576,2025-12-17 10:58:47.843673,0.466097,hit
27,right,2025-12-17 10:58:49.368747,2025-12-17 10:58:49.380297,2025-12-17 10:58:49.916297,0.536001,hit
28,right,2025-12-17 10:58:53.368747,2025-12-17 10:58:53.379934,2025-12-17 10:58:53.828662,0.448729,hit
29,left,2025-12-17 10:58:58.368747,2025-12-17 10:58:58.378016,2025-12-17 10:58:58.862716,0.484701,hit
30,right,2025-12-17 10:59:05.368747,2025-12-17 10:59:05.373036,2025-12-17 10:59:05.889871,0.516835,hit
31,left,2025-12-17 10:59:12.368747,2025-12-17 10:59:12.373843,2025-12-17 10:59:12.938453,0.564610,hit
32,left,2025-12-17 10:59:16.368747,2025-12-17 10:59:16.373480,2025-12-17 10:59:16.894990,0.521510,hit
33,right,2025-12-17 10:59:21.368747,2025-12-17 10:59:21.371585,2025-12-17 10:59:22.047795,0.676210,hit
34,right,2025-12-17 10:59:28.368747,2025-12-17 10:59:28.378197,2025-12-17 10:59:28.990505,0.612308,hit
35,left,2025-12-17 10:59:33.368747,2025-12-17 10:59:33.370496,2025-12-17 10:59:33.903756,0.533260,hit
36,left,2025-12-17 10:59:40.368747,2025-12-17 10:59:40.377108,2025-12-17 10:59:40.939088,0.561980,hit
37,left,2025-12-17 10:59:44.368747,2025-12-17 10:59:44.376746,2025-12-17 10:59:44.901057,0.524311,hit
38,right,2025-12-17 10:59:46.368747,2025-12-17 10:59:46.373662,2025-12-17 10:59:46.911688,0.538026,hit
39,right,2025-12-17 10:59:50.368747,2025-12-17 10:59:50.373299,2025-12-17 10:59:50.842867,0.469568,hit
40,left,2025-12-17 10:59:52.368747,2025-12-17 10:59:52.376020,2025-12-17 10:59:52.986073,0.610054,hit
41,left,2025-12-17 10:59:59.368747,2025-12-17 10:59:59.378594,2025-12-17 10:59:59.915651,0.537056,hit
42,right,2025-12-17 11:00:01.368747,2025-12-17 11:00:01.375506,2025-12-17 11:00:01.943843,0.568337,hit
43,right,2025-12-17 11:00:06.368747,2025-12-17 11:00:06.379397,2025-12-17 11:00:06.892948,0.513551,hit
44,left,2025-12-17 11:00:08.368747,2025-12-17 11:00:08.370526,2025-12-17 11:00:08.930363,0.559837,hit
45,right,2025-12-17 11:00:15.368747,2025-12-17 11:00:15.377138,2025-12-17 11:00:15.865008,0.487869,hit
46,left,2025-12-17 11:00:19.368747,2025-12-17 11:00:19.376776,2025-12-17 11:00:19.870541,0.493766,hit
47,right,2025-12-17 11:00:23.368747,2025-12-17 11:00:23.376413,2025-12-17 11:00:23.851952,0.475539,hit
48,left,2025-12-17 11:00:28.368747,2025-12-17 11:00:28.374517,2025-12-17 11:00:28.916622,0.542105,hit
49,right,2025-12-17 11:00:33.368747,2025-12-17 11:00:33.379515,2025-12-17 11:00:33.879395,0.499880,hit
50,right,2025-12-17 11:00:37.368747,2025-12-17 11:00:37.379153,2025-12-17 11:00:37.919701,0.540548,hit
51,left,2025-12-17 11:00:44.368747,2025-12-17 11:00:44.374173,2025-12-17 11:00:44.843850,0.469677,hit
52,left,2025-12-17 11:00:46.368747,2025-12-17 11:00:46.376894,2025-12-17 11:00:46.940873,0.563979,hit
53,left,2025-12-17 11:00:51.368747,2025-12-17 11:00:51.374980,2025-12-17 11:00:51.801722,0.426742,hit
54,right,2025-12-17 11:00:58.368747,2025-12-17 11:00:58.375806,2025-12-17 11:00:58.850389,0.474584,hit
55,left,2025-12-17 11:01:02.368747,2025-12-17 11:01:02.375443,2025-12-17 11:01:02.838096,0.462653,hit
56,right,2025-12-17 11:01:04.368747,2025-12-17 11:01:04.372359,2025-12-17 11:01:04.848423,0.476064,hit
57,left,2025-12-17 11:01:09.368747,2025-12-17 11:01:09.376250,2025-12-17 11:01:09.930016,0.553766,hit
58,right,2025-12-17 11:01:16.368747,2025-12-17 11:01:16.377080,2025-12-17 11:01:16.927605,0.550525,hit
59,left,2025-12-17 11:01:23.368747,2025-12-17 11:01:23.377883,2025-12-17 11:01:23.868572,0.490689,hit
60,left,2025-12-17 11:01:27.368747,2025-12-17 11:01:27.377520,2025-12-17 11:01:27.893485,0.515965,hit
61,left,2025-12-17 11:01:29.368747,2025-12-17 11:01:29.374436,2025-12-17 11:01:29.883296,0.508859,hit
62,right,2025-12-17 11:01:31.368747,2025-12-17 11:01:31.377157,2025-12-17 11:01:31.901494,0.524337,hit
63,right,2025-12-17 11:01:35.368747,2025-12-17 11:01:35.376794,2025-12-17 11:01:35.786945,0.410151,hit
64,right,2025-12-17 11:01:40.368747,2025-12-17 11:01:40.374899,2025-12-17 11:01:40.854550,0.479652,hit
65,right,2025-12-17 11:01:42.368747,2025-12-17 11:01:42.371815,2025-12-17 11:01:42.890208,0.518394,hit
66,left,2025-12-17 11:01:49.368747,2025-12-17 11:01:49.378427,2025-12-17 11:01:49.885727,0.507300,hit
67,left,2025-12-17 11:01:54.368747,2025-12-17 11:01:54.376531,2025-12-17 11:01:54.876875,0.500343,hit
68,none,,2025-12-17 11:01:57.178335,,,false_positive
68,right,2025-12-17 11:02:01.368747,2025-12-17 11:02:01.377339,2025-12-17 11:02:01.915457,0.538118,hit
69,right,2025-12-17 11:02:05.368747,2025-12-17 11:02:05.376976,2025-12-17 11:02:05.893648,0.516672,hit
70,left,2025-12-17 11:02:09.368747,2025-12-17 11:02:09.376613,2025-12-17 11:02:09.895794,0.519181,hit
71,right,2025-12-17 11:02:14.368747,2025-12-17 11:02:14.374717,2025-12-17 11:02:14.929065,0.554348,hit
72,left,2025-12-17 11:02:16.368747,2025-12-17 11:02:16.377443,2025-12-17 11:02:16.938640,0.561198,hit
73,left,2025-12-17 11:02:20.368747,2025-12-17 11:02:20.377080,2025-12-17 11:02:20.944829,0.567749,hit
74,left,2025-12-17 11:02:25.368747,2025-12-17 11:02:25.375162,2025-12-17 11:02:25.913065,0.537904,hit
75,right,2025-12-17 11:02:32.368747,2025-12-17 11:02:32.375987,2025-12-17 11:02:32.913814,0.537827,hit
76,left,2025-12-17 11:02:34.368747,2025-12-17 11:02:34.372903,2025-12-17 11:02:34.911168,0.538264,hit
77,left,2025-12-17 11:02:41.368747,2025-12-17 11:02:41.379515,2025-12-17 11:02:41.959394,0.579879,hit
78,right,2025-12-17 11:02:43.368747,2025-12-17 11:02:43.376431,2025-12-17 11:02:43.911924,0.535492,hit
79,right,2025-12-17 11:02:48.368747,2025-12-17 11:02:48.374536,2025-12-17 11:02:48.903173,0.528637,hit
80,right,2025-12-17 11:02:52.368747,2025-12-17 11:02:52.374173,2025-12-17 11:02:52.840557,0.466384,hit
81,right,2025-12-17 11:02:54.368747,2025-12-17 11:02:54.376894,2025-12-17 11:02:54.862725,0.485831,hit
82,left,2025-12-17 11:02:59.368747,2025-12-17 11:02:59.374980,2025-12-17 11:02:59.888351,0.513371,hit
83,right,2025-12-17 11:03:04.368747,2025-12-17 11:03:04.373085,2025-12-17 11:03:04.866527,0.493443,hit
84,left,2025-12-17 11:03:11.368747,2025-12-17 11:03:11.379697,2025-12-17 11:03:11.900146,0.520449,hit
85,left,2025-12-17 11:03:15.368747,2025-12-17 11:03:15.379334,2025-12-17 11:03:15.932226,0.552892,hit
86,right,2025-12-17 11:03:19.368747,2025-12-17 11:03:19.378971,2025-12-17 11:03:19.841536,0.462565,hit
87,left,2025-12-17 11:03:21.368747,2025-12-17 11:03:21.375887,2025-12-17 11:03:21.886530,0.510643,hit
88,right,2025-12-17 11:03:28.368747,2025-12-17 11:03:28.376713,2025-12-17 11:03:28.833623,0.456911,hit
89,right,2025-12-17 11:03:32.368747,2025-12-17 11:03:32.376350,2025-12-17 11:03:32.821271,0.444921,hit
90,left,2025-12-17 11:03:34.368747,2025-12-17 11:03:34.373266,2025-12-17 11:03:34.865180,0.491914,hit
91,left,2025-12-17 11:03:38.368747,2025-12-17 11:03:38.372903,2025-12-17 11:03:38.780627,0.407723,hit
92,right,2025-12-17 11:03:43.368747,2025-12-17 11:03:43.371698,2025-12-17 11:03:43.788118,0.416420,hit
93,right,2025-12-17 11:03:45.368747,2025-12-17 11:03:45.374419,2025-12-17 11:03:45.891642,0.517223,hit
94,right,2025-12-17 11:03:52.368747,2025-12-17 11:03:52.375226,2025-12-17 11:03:52.801924,0.426697,hit
95,left,2025-12-17 11:03:59.368747,2025-12-17 11:03:59.370247,2025-12-17 11:03:59.924452,0.554205,hit
96,left,2025-12-17 11:04:04.368747,2025-12-17 11:04:04.374138,2025-12-17 11:04:04.898285,0.524147,hit
97,left,2025-12-17 11:04:11.368747,2025-12-17 11:04:11.380750,2025-12-17 11:04:11.936814,0.556064,hit
98,left,2025-12-17 11:04:15.368747,2025-12-17 11:04:15.374600,2025-12-17 11:04:15.960861,0.586260,hit
99,left,2025-12-17 11:04:17.368747,2025-12-17 11:04:17.371517,2025-12-17 11:04:17.943310,0.571793,hit
100,right,2025-12-17 11:04:22.368747,2025-12-17 11:04:22.375408,2025-12-17 11:04:22.801330,0.425922,hit
101,right,2025-12-17 11:04:29.368747,2025-12-17 11:04:29.370428,2025-12-17 11:04:29.923485,0.553056,hit
102,right,2025-12-17 11:04:33.368747,2025-12-17 11:04:33.375852,2025-12-17 11:04:33.919712,0.543859,hit
103,right,2025-12-17 11:04:35.368747,2025-12-17 11:04:35.372787,2025-12-17 11:04:35.932210,0.559423,hit
104,left,2025-12-17 11:04:40.368747,2025-12-17 11:04:40.376678,2025-12-17 11:04:40.954332,0.577654,hit
105,right,2025-12-17 11:04:42.368747,2025-12-17 11:04:42.373594,2025-12-17 11:04:42.871601,0.498008,hit
106,left,2025-12-17 11:04:47.368747,2025-12-17 11:04:47.377485,2025-12-17 11:04:47.910871,0.533386,hit
107,right,2025-12-17 11:04:54.368747,2025-12-17 11:04:54.378315,2025-12-17 11:04:54.788068,0.409753,hit
108,left,2025-12-17 11:04:58.368747,2025-12-17 11:04:58.377947,2025-12-17 11:04:58.856599,0.478652,hit
109,left,2025-12-17 11:05:05.368747,2025-12-17 11:05:05.372968,2025-12-17 11:05:05.942970,0.570002,hit
110,right,2025-12-17 11:05:09.368747,2025-12-17 11:05:09.372605,2025-12-17 11:05:09.829064,0.456459,hit
111,left,2025-12-17 11:05:11.368747,2025-12-17 11:05:11.375326,2025-12-17 11:05:11.895716,0.520390,hit
112,right,2025-12-17 11:05:16.368747,2025-12-17 11:05:16.373412,2025-12-17 11:05:16.859352,0.485940,hit
113,left,2025-12-17 11:05:18.368747,2025-12-17 11:05:18.376133,2025-12-17 11:05:18.901572,0.525438,hit
114,left,2025-12-17 11:05:22.368747,2025-12-17 11:05:22.375771,2025-12-17 11:05:22.817911,0.442140,hit
115,right,2025-12-17 11:05:24.368747,2025-12-17 11:05:24.378496,2025-12-17 11:05:24.875609,0.497113,hit
116,left,2025-12-17 11:05:31.368747,2025-12-17 11:05:31.373512,2025-12-17 11:05:31.842784,0.469272,hit
117,right,2025-12-17 11:05:35.368747,2025-12-17 11:05:35.373149,2025-12-17 11:05:35.875053,0.501903,hit
118,left,2025-12-17 11:05:40.368747,2025-12-17 11:05:40.377040,2025-12-17 11:05:40.929730,0.552689,hit
119,right,2025-12-17 11:05:45.368747,2025-12-17 11:05:45.375145,2025-12-17 11:05:45.946026,0.570881,hit
120,right,2025-12-17 11:05:52.368747,2025-12-17 11:05:52.375952,2025-12-17 11:05:52.880054,0.504102,hit
121,left,2025-12-17 11:05:56.368747,2025-12-17 11:05:56.372470,2025-12-17 11:05:56.924989,0.552519,hit
122,right,2025-12-17 11:06:03.368747,2025-12-17 11:06:03.379110,2025-12-17 11:06:03.917352,0.538243,hit
123,left,2025-12-17 11:06:10.368747,2025-12-17 11:06:10.374103,2025-12-17 11:06:10.892432,0.518329,hit
124,left,2025-12-17 11:06:15.368747,2025-12-17 11:06:15.378017,2025-12-17 11:06:15.884967,0.506951,hit
125,right,2025-12-17 11:06:20.368747,2025-12-17 11:06:20.376103,2025-12-17 11:06:20.999397,0.623294,hit
126,left,2025-12-17 11:06:22.368747,2025-12-17 11:06:22.373014,2025-12-17 11:06:22.965258,0.592244,hit
127,right,2025-12-17 11:06:26.368747,2025-12-17 11:06:26.372652,2025-12-17 11:06:27.017894,0.645243,hit
128,right,2025-12-17 11:06:28.368747,2025-12-17 11:06:28.375373,2025-12-17 11:06:28.940497,0.565125,hit
129,left,2025-12-17 11:06:30.368747,2025-12-17 11:06:30.372289,2025-12-17 11:06:30.954466,0.582177,hit
130,right,2025-12-17 11:06:34.368747,2025-12-17 11:06:34.371926,2025-12-17 11:06:34.812615,0.440689,hit
131,left,2025-12-17 11:06:39.368747,2025-12-17 11:06:39.375840,2025-12-17 11:06:39.864503,0.488663,hit
132,left,2025-12-17 11:06:46.368747,2025-12-17 11:06:46.370837,2025-12-17 11:06:47.048738,0.677901,hit
133,left,2025-12-17 11:06:50.368747,2025-12-17 11:06:50.376284,2025-12-17 11:06:51.048198,0.671914,hit
134,right,2025-12-17 11:06:55.368747,2025-12-17 11:06:55.374388,2025-12-17 11:06:55.886571,0.512182,hit
135,right,2025-12-17 11:07:02.368747,2025-12-17 11:07:02.375191,2025-12-17 11:07:03.071626,0.696435,hit
136,right,2025-12-17 11:07:04.368747,2025-12-17 11:07:04.372107,2025-12-17 11:07:05.019275,0.647168,hit
137,left,2025-12-17 11:07:08.368747,2025-12-17 11:07:08.371744,2025-12-17 11:07:09.028637,0.656892,hit
138,left,2025-12-17 11:07:13.368747,2025-12-17 11:07:13.375658,2025-12-17 11:07:13.928853,0.553194,hit
139,left,2025-12-17 11:07:15.368747,2025-12-17 11:07:15.378379,2025-12-17 11:07:15.945932,0.567552,hit
140,right,2025-12-17 11:07:17.368747,2025-12-17 11:07:17.375295,2025-12-17 11:07:17.843288,0.467993,hit
141,right,2025-12-17 11:07:22.368747,2025-12-17 11:07:22.373377,2025-12-17 11:07:23.169106,0.795728,hit
142,left,2025-12-17 11:07:29.368747,2025-12-17 11:07:29.374207,2025-12-17 11:07:29.948196,0.573989,hit
143,right,2025-12-17 11:07:36.368747,2025-12-17 11:07:36.378056,2025-12-17 11:07:36.928687,0.550631,hit
144,right,2025-12-17 11:07:40.368747,2025-12-17 11:07:40.377693,2025-12-17 11:07:41.039124,0.661430,hit
145,right,2025-12-17 11:07:45.368747,2025-12-17 11:07:45.375775,2025-12-17 11:07:46.007106,0.631331,hit
146,left,2025-12-17 11:07:52.368747,2025-12-17 11:07:52.376605,2025-12-17 11:07:52.923315,0.546710,hit
147,right,2025-12-17 11:07:56.368747,2025-12-17 11:07:56.376242,2025-12-17 11:07:56.907611,0.531368,hit
148,right,2025-12-17 11:07:58.368747,2025-12-17 11:07:58.378963,2025-12-17 11:07:58.994566,0.615603,hit
149,left,2025-12-17 11:08:03.368747,2025-12-17 11:08:03.377049,2025-12-17 11:08:03.899480,0.522431,hit
150,right,2025-12-17 11:08:10.368747,2025-12-17 11:08:10.377875,2025-12-17 11:08:10.975485,0.597611,hit
151,left,2025-12-17 11:08:12.368747,2025-12-17 11:08:12.374791,2025-12-17 11:08:12.981858,0.607067,hit
152,left,2025-12-17 11:08:16.368747,2025-12-17 11:08:16.374428,2025-12-17 11:08:16.853658,0.479230,hit
153,left,2025-12-17 11:08:23.368747,2025-12-17 11:08:23.375231,2025-12-17 11:08:24.034518,0.659287,hit
154,right,2025-12-17 11:08:30.368747,2025-12-17 11:08:30.376061,2025-12-17 11:08:30.908419,0.532359,hit
155,right,2025-12-17 11:08:35.368747,2025-12-17 11:08:35.374142,2025-12-17 11:08:35.982275,0.608132,hit
156,right,2025-12-17 11:08:39.368747,2025-12-17 11:08:39.373780,2025-12-17 11:08:39.896673,0.522893,hit
157,left,2025-12-17 11:08:41.368747,2025-12-17 11:08:41.376501,2025-12-17 11:08:41.974112,0.597611,hit
158,left,2025-12-17 11:08:46.368747,2025-12-17 11:08:46.374609,2025-12-17 11:08:46.867020,0.492411,hit
159,left,2025-12-17 11:08:50.368747,2025-12-17 11:08:50.376016,2025-12-17 11:08:51.052129,0.676113,hit
160,right,2025-12-17 11:08:52.368747,2025-12-17 11:08:52.372932,2025-12-17 11:08:52.848800,0.475868,hit
161,right,2025-12-17 11:08:56.368747,2025-12-17 11:08:56.372569,2025-12-17 11:08:56.892034,0.519465,hit
162,left,2025-12-17 11:09:03.368747,2025-12-17 11:09:03.379186,2025-12-17 11:09:03.933009,0.553823,hit
163,right,2025-12-17 11:09:08.368747,2025-12-17 11:09:08.371481,2025-12-17 11:09:08.885255,0.513774,hit
164,left,2025-12-17 11:09:12.368747,2025-12-17 11:09:12.376928,2025-12-17 11:09:13.624763,1.247835,hit
165,left,2025-12-17 11:09:14.368747,2025-12-17 11:09:14.373839,2025-12-17 11:09:14.969775,0.595936,hit
166,right,2025-12-17 11:09:21.368747,2025-12-17 11:09:21.374646,2025-12-17 11:09:21.971479,0.596833,hit
167,left,2025-12-17 11:09:26.368747,2025-12-17 11:09:26.372751,2025-12-17 11:09:26.899084,0.526333,hit
168,right,2025-12-17 11:09:28.368747,2025-12-17 11:09:28.375472,2025-12-17 11:09:28.856680,0.481209,hit
169,right,2025-12-17 11:09:30.368747,2025-12-17 11:09:30.372388,2025-12-17 11:09:30.877338,0.504950,hit
170,right,2025-12-17 11:09:34.368747,2025-12-17 11:09:34.372025,2025-12-17 11:09:34.890333,0.518308,hit
171,none,,2025-12-17 11:09:35.924436,,,false_positive
171,right,2025-12-17 11:09:41.368747,2025-12-17 11:09:41.378637,2025-12-17 11:09:41.909319,0.530682,hit
172,left,2025-12-17 11:09:48.368747,2025-12-17 11:09:48.373658,2025-12-17 11:09:49.115309,0.741652,hit
173,left,2025-12-17 11:09:53.368747,2025-12-17 11:09:53.377549,2025-12-17 11:09:53.911521,0.533972,hit
174,left,2025-12-17 11:09:55.368747,2025-12-17 11:09:55.374465,2025-12-17 11:09:55.927424,0.552959,hit
175,right,2025-12-17 11:10:00.368747,2025-12-17 11:10:00.372569,2025-12-17 11:10:00.924900,0.552331,hit
176,left,2025-12-17 11:10:04.368747,2025-12-17 11:10:04.372206,2025-12-17 11:10:04.908430,0.536224,hit
177,right,2025-12-17 11:10:08.368747,2025-12-17 11:10:08.371844,2025-12-17 11:10:08.902130,0.530286,hit
178,left,2025-12-17 11:10:12.368747,2025-12-17 11:10:12.371481,2025-12-17 11:10:12.998956,0.627475,hit
179,left,2025-12-17 11:10:14.368747,2025-12-17 11:10:14.374202,2025-12-17 11:10:15.003839,0.629637,hit
180,right,2025-12-17 11:10:21.368747,2025-12-17 11:10:21.375009,2025-12-17 11:10:21.976707,0.601698,hit
181,right,2025-12-17 11:10:23.368747,2025-12-17 11:10:23.377730,2025-12-17 11:10:23.954967,0.577237,hit
182,left,2025-12-17 11:10:30.368747,2025-12-17 11:10:30.372751,2025-12-17 11:10:30.924578,0.551827,hit
183,right,2025-12-17 11:10:35.368747,2025-12-17 11:10:35.376642,2025-12-17 11:10:35.999746,0.623104,hit
184,left,2025-12-17 11:10:40.368747,2025-12-17 11:10:40.374746,2025-12-17 11:10:41.046691,0.671945,hit
185,right,2025-12-17 11:10:42.368747,2025-12-17 11:10:42.371662,2025-12-17 11:10:42.897143,0.525480,hit
186,right,2025-12-17 11:10:47.368747,2025-12-17 11:10:47.375553,2025-12-17 11:10:47.895795,0.520241,hit
187,right,2025-12-17 11:10:54.368747,2025-12-17 11:10:54.376379,2025-12-17 11:10:54.927030,0.550651,hit
188,left,2025-12-17 11:11:01.368747,2025-12-17 11:11:01.377186,2025-12-17 11:11:01.891734,0.514548,hit
189,right,2025-12-17 11:11:05.368747,2025-12-17 11:11:05.376823,2025-12-17 11:11:06.028250,0.651427,hit
190,left,2025-12-17 11:11:07.368747,2025-12-17 11:11:07.379549,2025-12-17 11:11:08.107272,0.727723,hit
191,left,2025-12-17 11:11:12.368747,2025-12-17 11:11:12.371844,2025-12-17 11:11:12.929905,0.558061,hit
192,left,2025-12-17 11:11:16.368747,2025-12-17 11:11:16.371481,2025-12-17 11:11:16.866764,0.495283,hit
193,right,2025-12-17 11:11:18.368747,2025-12-17 11:11:18.374202,2025-12-17 11:11:18.960902,0.586700,hit
194,right,2025-12-17 11:11:22.368747,2025-12-17 11:11:22.373839,2025-12-17 11:11:22.905957,0.532118,hit
195,right,2025-12-17 11:11:27.368747,2025-12-17 11:11:27.377730,2025-12-17 11:11:27.851546,0.473816,hit
196,left,2025-12-17 11:11:31.368747,2025-12-17 11:11:31.377367,2025-12-17 11:11:31.979787,0.602419,hit
197,left,2025-12-17 11:11:36.368747,2025-12-17 11:11:36.375472,2025-12-17 11:11:36.885170,0.509698,hit
198,right,2025-12-17 11:11:43.368747,2025-12-17 11:11:43.376279,2025-12-17 11:11:43.954828,0.578549,hit
199,left,2025-12-17 11:11:50.368747,2025-12-17 11:11:50.371300,2025-12-17 11:11:50.945258,0.573959,hit
