trial,side,scheduled_timestamp_utc,actual_onset_timestamp_utc,response_timestamp_utc,RT_seconds,resp_status,scheduled_offset_s,actual_onset_offset_s,response_offset_s
1,none,,2026-01-03 14:38:51.335525,,,false_positive,,,
1,none,,2026-01-03 14:38:52.363391,,,false_positive,,,
1,none,,2026-01-03 14:38:53.052181,,,false_positive,,,
1,none,,2026-01-03 14:38:53.749060,,,false_positive,,,
1,none,,2026-01-03 14:38:54.382050,,,false_positive,,,
1,none,,2026-01-03 14:38:55.637541,,,false_positive,,,
1,none,,2026-01-03 14:38:56.162192,,,false_positive,,,
1,left,2026-01-03 14:38:56.218093,2026-01-03 14:38:56.381440,2026-01-03 14:38:56.652730,0.271290,hit,7.0,7.163346938148607,7.434636499965563
2,left,2026-01-03 14:39:00.218093,2026-01-03 14:39:00.224342,2026-01-03 14:39:00.766213,0.541871,hit,11.0,11.006249432452023,11.548120583000127
3,right,2026-01-03 14:39:07.218093,2026-01-03 14:39:07.225150,2026-01-03 14:39:07.664162,0.439013,hit,18.0,18.007056689006276,18.44606920797378
4,right,2026-01-03 14:39:09.218093,2026-01-03 14:39:09.227871,2026-01-03 14:39:09.713104,0.485234,hit,20.0,20.009777777420823,20.495011291990522
5,left,2026-01-03 14:39:14.218093,2026-01-03 14:39:14.225975,2026-01-03 14:39:14.715902,0.489927,hit,25.0,25.007882085512392,25.49780891695991
6,left,2026-01-03 14:39:16.218093,2026-01-03 14:39:16.222891,2026-01-03 14:39:16.714946,0.492055,hit,27.0,27.004798185254913,27.49685324996244
7,right,2026-01-03 14:39:20.218093,2026-01-03 14:39:20.222528,2026-01-03 14:39:20.677753,0.455225,hit,31.0,31.004435373470187,31.459660041960888
8,right,2026-01-03 14:39:25.218093,2026-01-03 14:39:25.226419,2026-01-03 14:39:25.605247,0.378828,hit,36.0,36.00832653028192,36.387154083000496
9,left,2026-01-03 14:39:27.218093,2026-01-03 14:39:27.229145,2026-01-03 14:39:27.638924,0.409779,hit,38.0,38.01105215353891,38.42083074996481
10,none,,2026-01-03 14:39:27.894466,,,false_positive,,,
10,left,2026-01-03 14:39:32.218093,2026-01-03 14:39:32.221440,2026-01-03 14:39:32.623802,0.402363,hit,43.0,43.00334693811601,43.40570958296303
11,right,2026-01-03 14:39:37.218093,2026-01-03 14:39:37.225331,2026-01-03 14:39:37.795462,0.570131,hit,48.0,48.007238094869535,48.57736954197753
12,right,2026-01-03 14:39:39.218093,2026-01-03 14:39:39.228052,2026-01-03 14:39:39.772927,0.544875,hit,50.0,50.00995918334229,50.554834124981426
13,left,2026-01-03 14:39:46.218093,2026-01-03 14:39:46.223073,2026-01-03 14:39:46.730288,0.507216,hit,57.0,57.00497959117638,57.5121951669571
14,right,2026-01-03 14:39:53.218093,2026-01-03 14:39:53.223880,2026-01-03 14:39:53.749617,0.525737,hit,64.0,64.00578684773063,64.5315242499928
15,left,2026-01-03 14:39:57.218093,2026-01-03 14:39:57.223517,2026-01-03 14:39:57.701020,0.477503,hit,68.0,68.00542403594591,68.48292679199949
16,right,2026-01-03 14:40:01.218093,2026-01-03 14:40:01.228964,2026-01-03 14:40:01.645741,0.416777,hit,72.0,72.01087074767565,72.42764791694935
17,left,2026-01-03 14:40:06.218093,2026-01-03 14:40:06.221258,2026-01-03 14:40:06.299873,0.078615,hit,77.0,77.00316553219454,77.08178020798368
18,none,,2026-01-03 14:40:11.628452,,,false_positive,,,
18,left,2026-01-03 14:40:13.218093,2026-01-03 14:40:13.227871,2026-01-03 14:40:13.683405,0.455534,hit,84.0,84.00977777742082,84.46531204198254
19,left,2026-01-03 14:40:17.218093,2026-01-03 14:40:17.227508,2026-01-03 14:40:17.750010,0.522502,hit,88.0,88.0094149656361,88.53191691695247
20,right,2026-01-03 14:40:19.218093,2026-01-03 14:40:19.224424,2026-01-03 14:40:19.764912,0.540488,hit,90.0,90.00633106543683,90.54681941698072
21,left,2026-01-03 14:40:21.218093,2026-01-03 14:40:21.227145,2026-01-03 14:40:21.767590,0.540445,hit,92.0,92.00905215385137,92.54949720797595
22,right,2026-01-03 14:40:28.218093,2026-01-03 14:40:28.222166,2026-01-03 14:40:28.648649,0.426483,hit,99.0,99.00407256168546,99.43055604194524
23,right,2026-01-03 14:40:32.218093,2026-01-03 14:40:32.221803,2026-01-03 14:40:32.662542,0.440740,hit,103.0,103.00370974990074,103.44444924994605
24,right,2026-01-03 14:40:37.218093,2026-01-03 14:40:37.225694,2026-01-03 14:40:37.654220,0.428527,hit,108.0,108.00760090665426,108.43612745800056
25,left,2026-01-03 14:40:39.218093,2026-01-03 14:40:39.228415,2026-01-03 14:40:39.725770,0.497355,hit,110.0,110.01032199512701,110.50767666695174
26,right,2026-01-03 14:40:44.218093,2026-01-03 14:40:44.228710,2026-01-03 14:40:44.674887,0.446178,hit,115.0,115.01061677967664,115.45679462497355
27,right,2026-01-03 14:40:46.218093,2026-01-03 14:40:46.223863,2026-01-03 14:40:46.886293,0.662430,hit,117.0,117.00576984125655,117.66820012498647
28,right,2026-01-03 14:40:50.218093,2026-01-03 14:40:50.223500,2026-01-03 14:40:50.639365,0.415865,hit,121.0,121.00540702947183,121.42127208295278
29,left,2026-01-03 14:40:55.218093,2026-01-03 14:40:55.227391,2026-01-03 14:40:55.654891,0.427500,hit,126.0,126.00929818523582,126.4367982079857
30,right,2026-01-03 14:41:02.218093,2026-01-03 14:41:02.228198,2026-01-03 14:41:02.698944,0.470745,hit,133.0,133.01010544184828,133.48085083300248
31,left,2026-01-03 14:41:09.218093,2026-01-03 14:41:09.229024,2026-01-03 14:41:09.722683,0.493660,hit,140.0,140.0109308382962,140.50459054199746
32,left,2026-01-03 14:41:13.218093,2026-01-08 08:32:52.608256,2026-01-03 14:41:13.733435,-409898.874820,hit,144.0,410043.3901627048,144.5153423329466
33,right,2026-01-03 14:41:18.218093,2026-01-08 08:32:52.609480,2026-01-03 14:41:18.766497,-409893.842983,hit,149.0,410043.39138719445,149.5484039579751
34,right,2026-01-03 14:41:25.218093,2026-01-08 08:32:52.607167,2026-01-03 14:41:25.662218,-409886.944949,hit,156.0,410043.3890742693,156.4441250829841
35,left,2026-01-03 14:41:30.218093,2026-01-08 08:32:52.608392,2026-01-03 14:41:30.754020,-409881.854371,hit,161.0,410043.39029875916,161.53592762496555
36,left,2026-01-03 14:41:37.218093,2026-01-08 08:32:52.606079,2026-01-03 14:41:37.669853,-409874.936226,hit,168.0,410043.387985834,168.45176016696496
37,left,2026-01-03 14:41:41.218093,2026-01-08 08:32:52.605716,2026-01-03 14:41:41.690874,-409870.914842,hit,172.0,410043.38762302214,172.4727808329626
38,right,2026-01-03 14:41:43.218093,2026-01-08 08:32:52.608437,2026-01-03 14:41:43.725347,-409868.883090,hit,174.0,410043.3903441106,174.50725391699234
39,right,2026-01-03 14:41:47.218093,2026-01-08 08:32:52.608074,2026-01-03 14:41:47.723177,-409864.884897,hit,178.0,410043.38998129877,178.50508424994769
40,left,2026-01-03 14:41:49.218093,2026-01-08 08:32:52.605467,2026-01-03 14:41:49.743742,-409862.861724,hit,180.0,410043.38737358904,180.525649166957
41,left,2026-01-03 14:41:56.218093,2026-01-08 08:32:52.608006,2026-01-03 14:41:56.705868,-409855.902138,hit,187.0,410043.3899132717,187.48777562496252
42,right,2026-01-03 14:41:58.218093,2026-01-08 08:32:52.605398,2026-01-03 14:41:58.756331,-409853.849067,hit,189.0,410043.387305562,189.53823849995388
43,right,2026-01-03 14:42:03.218093,2026-01-08 08:32:52.606147,2026-01-03 14:42:03.708876,-409848.897271,hit,194.0,410043.3880538613,194.49078316695523
44,left,2026-01-03 14:42:05.218093,2026-01-08 08:32:52.608868,2026-01-03 14:42:05.695740,-409846.913128,hit,196.0,410043.3907749495,196.4776467079646
45,right,2026-01-03 14:42:12.218093,2026-01-08 08:32:52.606079,2026-01-03 14:42:12.659278,-409839.946800,hit,203.0,410043.387985834,203.44118558295304
46,left,2026-01-03 14:42:16.218093,2026-01-08 08:32:52.605716,2026-01-03 14:42:16.682732,-409835.922984,hit,207.0,410043.38762302214,207.46463945799042
47,right,2026-01-03 14:42:20.218093,2026-01-08 08:32:52.605353,2026-01-03 14:42:20.637421,-409831.967933,hit,211.0,410043.3872602103,211.419327666983
48,left,2026-01-03 14:42:25.218093,2026-01-08 08:32:52.606578,2026-01-03 14:42:25.708564,-409826.898014,hit,216.0,410043.3884847002,216.4904706669622
49,right,2026-01-03 14:42:30.218093,2026-01-08 08:32:52.606872,2026-01-03 14:42:30.676378,-409821.930494,hit,221.0,410043.3887794847,221.4582851669984
50,right,2026-01-03 14:42:34.218093,2026-01-08 08:32:52.606510,2026-01-03 14:42:34.732226,-409817.874283,hit,225.0,410043.3884166729,225.5141335419612
51,left,2026-01-03 14:42:41.218093,2026-01-08 08:32:52.610002,2026-01-03 14:42:41.708687,-409810.901315,hit,232.0,410043.3919087365,232.4905939999735
52,left,2026-01-03 14:42:43.218093,2026-01-08 08:32:52.606441,2026-01-03 14:42:43.853232,-409808.753209,hit,234.0,410043.3883486458,234.6351395829697
53,left,2026-01-03 14:42:48.218093,2026-01-08 08:32:52.606260,2026-01-03 14:42:48.711323,-409803.894937,hit,239.0,410043.3881672398,239.49323041696334
54,right,2026-01-03 14:42:55.218093,2026-01-08 08:32:52.610206,2026-01-03 14:42:55.775110,-409796.835095,hit,246.0,410043.39211281814,246.55701749998843
55,left,2026-01-03 14:42:59.218093,2026-01-08 08:32:52.609843,2026-01-03 14:42:59.722480,-409792.887363,hit,250.0,410043.3917500063,250.5043870419613
56,right,2026-01-03 14:43:01.218093,2026-01-08 08:32:52.606759,2026-01-03 14:43:01.741861,-409790.864898,hit,252.0,410043.388666106,252.52376770798583
57,left,2026-01-03 14:43:06.218093,2026-01-08 08:32:52.607530,2026-01-03 14:43:06.688242,-409785.919288,hit,257.0,410043.3894370811,257.4701491249725
58,right,2026-01-03 14:43:13.218093,2026-01-08 08:32:52.605671,2026-01-03 14:43:13.749659,-409778.856012,hit,264.0,410043.3875776707,264.53156574995955
59,left,2026-01-03 14:43:20.218093,2026-01-08 08:32:52.609163,2026-01-03 14:43:20.713995,-409771.895167,hit,271.0,410043.3910697343,271.4959024169948
60,left,2026-01-03 14:43:24.218093,2026-01-08 08:32:52.608324,2026-01-03 14:43:24.679422,-409767.928901,hit,275.0,410043.39023073186,275.4613295829622
61,left,2026-01-03 14:43:26.218093,2026-01-08 08:32:52.605240,2026-01-03 14:43:26.739537,-409765.865702,hit,277.0,410043.3871468318,277.5214446669561
62,right,2026-01-03 14:43:28.218093,2026-01-08 08:32:52.607961,2026-01-03 14:43:28.726850,-409763.881111,hit,279.0,410043.38986792025,279.50875704200007
63,right,2026-01-03 14:43:32.218093,2026-01-08 08:32:52.607598,2026-01-03 14:43:32.737277,-409759.870321,hit,283.0,410043.3895051084,283.5191839169711
64,right,2026-01-03 14:43:37.218093,2026-01-08 08:32:52.608369,2026-01-03 14:43:37.748369,-409754.860000,hit,288.0,410043.3902760833,288.53027574997395
65,right,2026-01-03 14:43:39.218093,2026-01-08 08:32:52.605285,2026-01-03 14:43:39.822879,-409752.782406,hit,290.0,410043.38719218323,290.6047858329839
66,left,2026-01-03 14:43:46.218093,2026-01-08 08:32:52.609231,2026-01-03 14:43:46.681884,-409745.927347,hit,297.0,410043.39113776135,297.46379091695417
67,left,2026-01-03 14:43:51.218093,2026-01-08 08:32:52.609525,2026-01-03 14:43:51.736073,-409740.873453,hit,302.0,410043.3914325459,302.5179800419719
68,right,2026-01-03 14:43:58.218093,2026-01-08 08:32:52.607213,2026-01-03 14:43:58.714550,-409733.892662,hit,309.0,410043.3891196207,309.49645737494575
69,right,2026-01-03 14:44:02.218093,2026-01-08 08:32:52.606850,2026-01-03 14:44:02.707915,-409729.898935,hit,313.0,410043.3887568091,313.4898217919981
70,left,2026-01-03 14:44:06.218093,2026-01-08 08:32:52.606487,2026-01-03 14:44:06.741750,-409725.864737,hit,317.0,410043.3883939973,317.52365674998146
71,right,2026-01-03 14:44:11.218093,2026-01-08 08:32:52.607711,2026-01-03 14:44:11.721252,-409720.886459,hit,322.0,410043.3896184869,322.50315912498627
72,left,2026-01-03 14:44:13.218093,2026-01-08 08:32:52.605104,2026-01-03 14:44:13.698667,-409718.906437,hit,324.0,410043.3870107772,324.48057362495456
73,left,2026-01-03 14:44:17.218093,2026-01-08 08:32:52.610070,2026-01-03 14:44:17.725352,-409714.884718,hit,328.0,410043.3919767638,328.50725858297665
74,left,2026-01-03 14:44:22.218093,2026-01-08 08:32:52.605036,2026-01-03 14:44:22.725407,-409709.879628,hit,333.0,410043.38694275013,333.50731445796555
75,right,2026-01-03 14:44:29.218093,2026-01-08 08:32:52.608981,2026-01-03 14:44:29.792574,-409702.816407,hit,340.0,410043.39088832826,340.57448104198556
76,left,2026-01-03 14:44:31.218093,2026-01-08 08:32:52.605421,2026-01-03 14:44:31.825829,-409700.779592,hit,342.0,410043.3873282376,342.6077359999763
77,left,2026-01-03 14:44:38.218093,2026-01-08 08:32:52.608913,2026-01-03 14:44:38.726177,-409693.882736,hit,349.0,410043.3908203012,349.5080842919997
78,right,2026-01-03 14:44:40.218093,2026-01-08 08:32:52.605353,2026-01-03 14:44:40.867404,-409691.737949,hit,351.0,410043.3872602103,351.6493107499555
79,right,2026-01-03 14:44:45.218093,2026-01-08 08:32:52.606124,2026-01-03 14:44:45.870176,-409686.735948,hit,356.0,410043.38803118543,356.6520827499917
80,right,2026-01-03 14:44:49.218093,2026-01-08 08:32:52.605761,2026-01-03 14:44:49.725330,-409682.880431,hit,360.0,410043.3876683736,360.50723749998724
81,right,2026-01-03 14:44:51.218093,2026-01-08 08:32:52.608482,2026-01-03 14:44:51.861323,-409680.747159,hit,362.0,410043.39038946206,362.6432301249588
82,left,2026-01-03 14:44:56.218093,2026-01-08 08:32:52.609707,2026-01-03 14:44:56.695359,-409675.914348,hit,367.0,410043.39161395194,367.4772657499998
83,right,2026-01-03 14:45:01.218093,2026-01-08 08:32:52.605126,2026-01-03 14:45:01.688117,-409670.917009,hit,372.0,410043.38703345304,372.47002395795425
84,left,2026-01-03 14:45:08.218093,2026-01-08 08:32:52.608142,2026-01-03 14:45:08.714311,-409663.893831,hit,379.0,410043.39004932606,379.49621837498853
85,left,2026-01-03 14:45:12.218093,2026-01-08 08:32:52.607780,2026-01-03 14:45:12.687709,-409659.920070,hit,383.0,410043.3896865142,383.46961620799266
86,right,2026-01-03 14:45:16.218093,2026-01-08 08:32:52.607417,2026-01-03 14:45:16.769164,-409655.838252,hit,387.0,410043.3893237024,387.55107137496816
87,left,2026-01-03 14:45:18.218093,2026-01-08 08:32:52.605285,2026-01-03 14:45:18.709022,-409653.896264,hit,389.0,410043.38719218323,389.49092858296353
88,right,2026-01-03 14:45:25.218093,2026-01-08 08:32:52.608301,2026-01-03 14:45:25.733231,-409646.875070,hit,396.0,410043.39020805625,396.5151379579911
89,right,2026-01-03 14:45:29.218093,2026-01-08 08:32:52.607938,2026-01-03 14:45:29.708651,-409642.899287,hit,400.0,410043.3898452444,400.49055783299264
90,left,2026-01-03 14:45:31.218093,2026-01-08 08:32:52.605308,2026-01-03 14:45:31.734642,-409640.870666,hit,402.0,410043.38721485884,402.5165485419566
91,left,2026-01-03 14:45:35.218093,2026-01-08 08:32:52.610296,2026-01-03 14:45:35.712471,-409636.897825,hit,406.0,410043.39220352104,406.4943780829781
92,right,2026-01-03 14:45:40.218093,2026-01-08 08:32:52.605240,2026-01-03 14:45:40.730005,-409631.875234,hit,411.0,410043.3871468318,411.5119124169578
93,right,2026-01-03 14:45:42.218093,2026-01-08 08:32:52.607961,2026-01-03 14:45:42.734043,-409629.873918,hit,413.0,410043.38986792025,413.5159497919958
94,right,2026-01-03 14:45:49.218093,2026-01-08 08:32:52.606124,2026-01-03 14:45:49.716778,-409622.889346,hit,420.0,410043.38803118543,420.4986849579727
95,none,,2026-01-03 14:45:55.248348,,,false_positive,,,
95,left,2026-01-03 14:45:56.218093,2026-01-08 08:32:52.609593,2026-01-03 14:45:56.849919,-409615.759674,hit,427.0,410043.3915005732,427.6318263330031
96,left,2026-01-03 14:46:01.218093,2026-01-08 08:32:52.605036,2026-01-03 14:46:01.747080,-409610.857956,hit,432.0,410043.38694275013,432.5289868330001
97,left,2026-01-03 14:46:08.218093,2026-01-08 08:32:52.608505,2026-01-03 14:46:08.764332,-409603.844173,hit,439.0,410043.3904121379,439.5462394169881
98,left,2026-01-03 14:46:12.218093,2026-01-08 08:32:52.608142,2026-01-03 14:46:12.795237,-409599.812905,hit,443.0,410043.39004932606,443.57714391697664
99,left,2026-01-03 14:46:14.218093,2026-01-08 08:32:52.605058,2026-01-03 14:46:14.812848,-409597.792210,hit,445.0,410043.38696542574,445.59475499996915
100,right,2026-01-03 14:46:19.218093,2026-01-08 08:32:52.606306,2026-01-03 14:46:19.835164,-409592.771141,hit,450.0,410043.38821259124,450.61707129195565
101,right,2026-01-03 14:46:26.218093,2026-01-08 08:32:52.609775,2026-01-03 14:46:26.750782,-409585.858993,hit,457.0,410043.391681979,457.53268933296204
102,right,2026-01-03 14:46:30.218093,2026-01-08 08:32:52.609412,2026-01-03 14:46:30.751727,-409581.857685,hit,461.0,410043.3913191674,461.53363424999407
103,right,2026-01-03 14:46:32.218093,2026-01-08 08:32:52.606328,2026-01-03 14:46:32.901521,-409579.704807,hit,463.0,410043.3882352671,463.68342854199
104,left,2026-01-03 14:46:37.218093,2026-01-08 08:32:52.607575,2026-01-03 14:46:37.784876,-409574.822699,hit,468.0,410043.38948243257,468.56678316695616
105,right,2026-01-03 14:46:39.218093,2026-01-08 08:32:52.610296,2026-01-03 14:46:39.795429,-409572.814868,hit,470.0,410043.39220352104,470.57733558298787
106,left,2026-01-03 14:46:44.218093,2026-01-08 08:32:52.605240,2026-01-03 14:46:44.822505,-409567.782734,hit,475.0,410043.3871468318,475.6044124579639
107,right,2026-01-03 14:46:51.218093,2026-01-08 08:32:52.609208,2026-01-03 14:46:51.762614,-409560.846594,hit,482.0,410043.39111508575,482.54452133295126
108,left,2026-01-03 14:46:55.218093,2026-01-08 08:32:52.608845,2026-01-03 14:46:55.883936,-409556.724909,hit,486.0,410043.3907522739,486.66584329196485
109,left,2026-01-03 14:47:02.218093,2026-01-08 08:32:52.606510,2026-01-03 14:47:02.740307,-409549.866203,hit,493.0,410043.3884166729,493.52221362496493
110,right,2026-01-03 14:47:06.218093,2026-01-08 08:32:52.606147,2026-01-03 14:47:06.857499,-409545.748648,hit,497.0,410043.3880538613,497.6394057080033
111,left,2026-01-03 14:47:08.218093,2026-01-08 08:32:52.608868,2026-01-03 14:47:08.823812,-409543.785056,hit,499.0,410043.3907749495,499.60571866697865
112,right,2026-01-03 14:47:13.218093,2026-01-08 08:32:52.610115,2026-01-03 14:47:13.856597,-409538.753518,hit,504.0,410043.39202211524,504.63850395794725
113,left,2026-01-03 14:47:15.218093,2026-01-08 08:32:52.607031,2026-01-03 14:47:15.820556,-409536.786475,hit,506.0,410043.3889382149,506.60246341698803
114,left,2026-01-03 14:47:19.218093,2026-01-08 08:32:52.606668,2026-01-03 14:47:19.764510,-409532.842158,hit,510.0,410043.3885754031,510.5464172499487
115,right,2026-01-03 14:47:21.218093,2026-01-08 08:32:52.609389,2026-01-03 14:47:21.820812,-409530.788578,hit,512.0,410043.39129649155,512.602718707989
116,left,2026-01-03 14:47:28.218093,2026-01-08 08:32:52.607054,2026-01-03 14:47:28.816573,-409523.790481,hit,519.0,410043.38896089076,519.5984803749598
117,right,2026-01-03 14:47:32.218093,2026-01-08 08:32:52.606691,2026-01-03 14:47:32.836082,-409519.770609,hit,523.0,410043.3885980789,523.6179890419589
118,left,2026-01-03 14:47:37.218093,2026-01-08 08:32:52.607938,2026-01-03 14:47:37.910266,-409514.697672,hit,528.0,410043.3898452444,528.6921729169553
119,right,2026-01-03 14:47:42.218093,2026-01-08 08:32:52.608686,2026-01-03 14:47:43.213496,-409509.395191,hit,533.0,410043.3905935437,533.9954030419467
120,right,2026-01-03 14:47:49.218093,2026-01-08 08:32:52.606850,2026-01-03 14:47:49.832565,-409502.774285,hit,540.0,410043.3887568091,540.6144717499847
121,left,2026-01-03 14:47:53.218093,2026-01-08 08:32:52.606487,2026-01-03 14:47:53.788340,-409498.818146,hit,544.0,410043.3883939973,544.5702475419967
122,right,2026-01-03 14:48:00.218093,2026-01-08 08:32:52.609480,2026-01-03 14:48:00.865870,-409491.743611,hit,551.0,410043.39138719445,551.6477765829768
123,left,2026-01-03 14:48:07.218093,2026-01-08 08:32:52.607643,2026-01-03 14:48:07.753867,-409484.853777,hit,558.0,410043.38955045986,558.5357739579631
124,left,2026-01-03 14:48:12.218093,2026-01-08 08:32:52.608392,2026-01-03 14:48:12.789064,-409479.819328,hit,563.0,410043.39029875916,563.570971249952
125,right,2026-01-03 14:48:17.218093,2026-01-08 08:32:52.609639,2026-01-03 14:48:17.748008,-409474.861631,hit,568.0,410043.39154592465,568.5299147499609
126,left,2026-01-03 14:48:19.218093,2026-01-08 08:32:52.606555,2026-01-03 14:48:19.901963,-409472.704592,hit,570.0,410043.38846202457,570.683869832952
127,right,2026-01-03 14:48:23.218093,2026-01-08 08:32:52.606192,2026-01-03 14:48:23.756363,-409468.849829,hit,574.0,410043.3880992127,574.5382703749929
128,right,2026-01-03 14:48:25.218093,2026-01-08 08:32:52.608437,2026-01-03 14:48:25.928040,-409466.680397,hit,576.0,410043.3903441106,576.7099469999666
129,left,2026-01-03 14:48:27.218093,2026-01-08 08:32:52.605829,2026-01-03 14:48:27.741224,-409464.864606,hit,578.0,410043.3877364009,578.5231306669884
130,right,2026-01-03 14:48:31.218093,2026-01-08 08:32:52.605467,2026-01-03 14:48:31.922042,-409460.683425,hit,582.0,410043.38737358904,582.7039490419556
131,left,2026-01-03 14:48:36.218093,2026-01-08 08:32:52.606215,2026-01-03 14:48:36.820328,-409455.785887,hit,587.0,410043.38812188833,587.6022350419662
132,left,2026-01-03 14:48:43.218093,2026-01-08 08:32:52.610183,2026-01-03 14:48:43.817601,-409448.792582,hit,594.0,410043.3920901423,594.5995081669535
133,left,2026-01-03 14:48:47.218093,2026-01-08 08:32:52.609820,2026-01-03 14:48:47.745105,-409444.864715,hit,598.0,410043.3917273307,598.527011832979
134,none,,2026-01-03 14:48:49.384806,,,false_positive,,,
134,right,2026-01-03 14:48:52.218093,2026-01-08 08:32:52.605240,2026-01-03 14:48:52.860790,-409439.744450,hit,603.0,410043.3871468318,603.6426965419669
135,right,2026-01-03 14:48:59.218093,2026-01-08 08:32:52.608732,2026-01-03 14:48:59.759900,-409432.848832,hit,610.0,410043.39063889516,610.5418070419692
136,right,2026-01-03 14:49:01.218093,2026-01-08 08:32:52.605648,2026-01-03 14:49:01.802008,-409430.803640,hit,612.0,410043.3875549951,612.5839148329687
137,left,2026-01-03 14:49:05.218093,2026-01-08 08:32:52.605285,2026-01-03 14:49:05.766317,-409426.838968,hit,616.0,410043.38719218323,616.5482245419989
138,left,2026-01-03 14:49:10.218093,2026-01-08 08:32:52.606033,2026-01-03 14:49:10.752695,-409421.853338,hit,621.0,410043.3879404825,621.5346023750026
139,left,2026-01-03 14:49:12.218093,2026-01-08 08:32:52.608754,2026-01-03 14:49:12.791911,-409419.816843,hit,623.0,410043.390661571,623.573818374949
140,right,2026-01-03 14:49:14.218093,2026-01-08 08:32:52.605671,2026-01-03 14:49:14.911515,-409417.694156,hit,625.0,410043.3875776707,625.693421541946
141,right,2026-01-03 14:49:19.218093,2026-01-08 08:32:52.606918,2026-01-03 14:49:19.994323,-409412.612594,hit,630.0,410043.3888248362,630.7762305419892
142,left,2026-01-03 14:49:26.218093,2026-01-08 08:32:52.605058,2026-01-03 14:49:26.852445,-409405.752613,hit,637.0,410043.38696542574,637.6343524169642
143,right,2026-01-03 14:49:33.218093,2026-01-08 08:32:52.608550,2026-01-03 14:49:34.003047,-409398.605503,hit,644.0,410043.39045748935,644.7849542920012
144,right,2026-01-03 14:49:37.218093,2026-01-08 08:32:52.608188,2026-01-03 14:49:37.789127,-409394.819060,hit,648.0,410043.3900946775,648.5710343329702
145,right,2026-01-03 14:49:42.218093,2026-01-08 08:32:52.608936,2026-01-03 14:49:42.845853,-409389.763082,hit,653.0,410043.3908429768,653.6277605419746
146,left,2026-01-03 14:49:49.218093,2026-01-08 08:32:52.607099,2026-01-03 14:49:49.725327,-409382.881772,hit,660.0,410043.3890062422,660.5072342079948
147,right,2026-01-03 14:49:53.218093,2026-01-08 08:32:52.606736,2026-01-03 14:49:53.930910,-409378.675826,hit,664.0,410043.3886434304,664.7128169579664
148,right,2026-01-03 14:49:55.218093,2026-01-08 08:32:52.608981,2026-01-03 14:49:55.755518,-409376.853463,hit,666.0,410043.39088832826,666.5374249999877
149,left,2026-01-03 14:50:00.218093,2026-01-08 08:32:52.610206,2026-01-03 14:50:00.728759,-409371.881447,hit,671.0,410043.39211281814,671.5106658749864
150,right,2026-01-03 14:50:07.218093,2026-01-08 08:32:52.607893,2026-01-03 14:50:07.765710,-409364.842183,hit,678.0,410043.38979989296,678.5476168749738
151,left,2026-01-03 14:50:09.218093,2026-01-08 08:32:52.605285,2026-01-03 14:50:09.744831,-409362.860454,hit,680.0,410043.38719218323,680.5267379169818
152,left,2026-01-03 14:50:13.218093,2026-01-08 08:32:52.605398,2026-01-03 14:50:13.723390,-409358.882008,hit,684.0,410043.387305562,684.5052974999999
153,left,2026-01-03 14:50:20.218093,2026-01-08 08:32:52.608392,2026-01-03 14:50:20.727409,-409351.880983,hit,691.0,410043.39029875916,691.5093158749514
154,right,2026-01-03 14:50:27.218093,2026-01-08 08:32:52.606555,2026-01-03 14:50:27.753975,-409344.852580,hit,698.0,410043.38846202457,698.5358819579706
155,right,2026-01-03 14:50:32.218093,2026-01-08 08:32:52.607303,2026-01-03 14:50:32.754871,-409339.852433,hit,703.0,410043.38921032386,703.5367777499487
156,right,2026-01-03 14:50:36.218093,2026-01-08 08:32:52.606941,2026-01-03 14:50:36.750059,-409335.856882,hit,707.0,410043.388847512,707.5319658329827
157,left,2026-01-03 14:50:38.218093,2026-01-08 08:32:52.609662,2026-01-03 14:50:38.744845,-409333.864816,hit,709.0,410043.3915686005,709.5267522919457
158,left,2026-01-03 14:50:43.218093,2026-01-08 08:32:52.605104,2026-01-03 14:50:43.745865,-409328.859239,hit,714.0,410043.3870107772,714.5277718749712
159,left,2026-01-03 14:50:47.218093,2026-01-08 08:32:52.605217,2026-01-03 14:50:47.702863,-409324.902354,hit,718.0,410043.38712415594,718.4847697079531
160,right,2026-01-03 14:50:49.218093,2026-01-08 08:32:52.607462,2026-01-03 14:50:49.755967,-409322.851495,hit,720.0,410043.3893690538,720.5378738750005
161,right,2026-01-03 14:50:53.218093,2026-01-08 08:32:52.607099,2026-01-03 14:50:53.743015,-409318.864084,hit,724.0,410043.3890062422,724.5249222079874
162,left,2026-01-03 14:51:00.218093,2026-01-08 08:32:52.610115,2026-01-03 14:51:00.756200,-409311.853915,hit,731.0,410043.39202211524,731.5381067919661
163,right,2026-01-03 14:51:05.218093,2026-01-08 08:32:52.605058,2026-01-03 14:51:05.779406,-409306.825653,hit,736.0,410043.38696542574,736.5613128749537
164,left,2026-01-03 14:51:09.218093,2026-01-08 08:32:52.605172,2026-01-03 14:51:09.719287,-409302.885885,hit,740.0,410043.3870788045,740.5011937919771
165,left,2026-01-03 14:51:11.218093,2026-01-08 08:32:52.607417,2026-01-03 14:51:11.766474,-409300.840942,hit,742.0,410043.3893237024,742.5483816670021
166,right,2026-01-03 14:51:18.218093,2026-01-08 08:32:52.605580,2026-01-03 14:51:18.796545,-409293.809035,hit,749.0,410043.3874869678,749.5784520419547
167,left,2026-01-03 14:51:23.218093,2026-01-08 08:32:52.606328,2026-01-03 14:51:23.708019,-409288.898309,hit,754.0,410043.3882352671,754.4899258329533
168,right,2026-01-03 14:51:25.218093,2026-01-08 08:32:52.609049,2026-01-03 14:51:25.758673,-409286.850376,hit,756.0,410043.39095635555,756.5405799999717
169,right,2026-01-03 14:51:27.218093,2026-01-08 08:32:52.605965,2026-01-03 14:51:27.698733,-409284.907232,hit,758.0,410043.38787245523,758.480640291993
170,right,2026-01-03 14:51:31.218093,2026-01-08 08:32:52.605603,2026-01-03 14:51:31.745894,-409280.859708,hit,762.0,410043.3875096434,762.5278012079652
171,right,2026-01-03 14:51:38.218093,2026-01-08 08:32:52.609571,2026-01-03 14:51:38.755678,-409273.853893,hit,769.0,410043.39147789736,769.5375852499856
172,left,2026-01-03 14:51:45.218093,2026-01-08 08:32:52.607235,2026-01-03 14:51:45.772184,-409266.835051,hit,776.0,410043.38914229657,776.5540909999982
173,left,2026-01-03 14:51:50.218093,2026-01-08 08:32:52.608482,2026-01-03 14:51:50.753716,-409261.854766,hit,781.0,410043.39038946206,781.535623624979
174,left,2026-01-03 14:51:52.218093,2026-01-08 08:32:52.605398,2026-01-03 14:51:52.726451,-409259.878947,hit,783.0,410043.387305562,783.5083583329688
175,right,2026-01-03 14:51:57.218093,2026-01-08 08:32:52.606147,2026-01-03 14:51:57.773757,-409254.832389,hit,788.0,410043.3880538613,788.5556645829929
176,left,2026-01-03 14:52:01.218093,2026-01-08 08:32:52.605784,2026-01-03 14:52:01.728873,-409250.876911,hit,792.0,410043.38769104943,792.5107800419792
177,right,2026-01-03 14:52:05.218093,2026-01-08 08:32:52.605421,2026-01-03 14:52:05.726913,-409246.878508,hit,796.0,410043.3873282376,796.5088198329904
178,left,2026-01-03 14:52:09.218093,2026-01-08 08:32:52.605058,2026-01-03 14:52:09.661627,-409242.943431,hit,800.0,410043.38696542574,800.4435342499637
179,left,2026-01-03 14:52:11.218093,2026-01-08 08:32:52.607780,2026-01-03 14:52:11.742412,-409240.865367,hit,802.0,410043.3896865142,802.524319374992
180,right,2026-01-03 14:52:18.218093,2026-01-08 08:32:52.605943,2026-01-03 14:52:18.716269,-409233.889673,hit,809.0,410043.3878497796,809.4981764580007
181,right,2026-01-03 14:52:20.218093,2026-01-08 08:32:52.608664,2026-01-03 14:52:20.801130,-409231.807534,hit,811.0,410043.3905708681,811.583036749973
182,left,2026-01-03 14:52:27.218093,2026-01-08 08:32:52.606328,2026-01-03 14:52:27.726682,-409224.879646,hit,818.0,410043.3882352671,818.508589541947
183,right,2026-01-03 14:52:32.218093,2026-01-08 08:32:52.607575,2026-01-03 14:52:32.759818,-409219.847757,hit,823.0,410043.38948243257,823.5417249999591
184,left,2026-01-03 14:52:37.218093,2026-01-08 08:32:52.608324,2026-01-03 14:52:37.782467,-409214.825857,hit,828.0,410043.39023073186,828.5643740829546
185,right,2026-01-03 14:52:39.218093,2026-01-08 08:32:52.605240,2026-01-03 14:52:39.818278,-409212.786962,hit,830.0,410043.3871468318,830.6001847499865
186,right,2026-01-03 14:52:44.218093,2026-01-08 08:32:52.606487,2026-01-03 14:52:44.728866,-409207.877621,hit,835.0,410043.3883939973,835.510772916954
187,right,2026-01-03 14:52:51.218093,2026-01-08 08:32:52.609956,2026-01-03 14:52:51.744841,-409200.865115,hit,842.0,410043.39186338504,842.5267479579779
188,left,2026-01-03 14:52:58.218093,2026-01-08 08:32:52.608119,2026-01-03 14:52:58.795503,-409193.812617,hit,849.0,410043.3900266502,849.577410124999
189,right,2026-01-03 14:53:02.218093,2026-01-08 08:32:52.607757,2026-01-03 14:53:02.748320,-409189.859437,hit,853.0,410043.3896638386,853.5302269169479
190,left,2026-01-03 14:53:04.218093,2026-01-08 08:32:52.605126,2026-01-03 14:53:04.766562,-409187.838564,hit,855.0,410043.38703345304,855.5484691669699
191,left,2026-01-03 14:53:09.218093,2026-01-08 08:32:52.605421,2026-01-03 14:53:09.702152,-409182.903269,hit,860.0,410043.3873282376,860.4840596669819
192,left,2026-01-03 14:53:13.218093,2026-01-08 08:32:52.605058,2026-01-03 14:53:13.668524,-409178.936534,hit,864.0,410043.38696542574,864.4504310420016
193,right,2026-01-03 14:53:15.218093,2026-01-08 08:32:52.607780,2026-01-03 14:53:15.687786,-409176.919994,hit,866.0,410043.3896865142,866.4696928329649
194,right,2026-01-03 14:53:19.218093,2026-01-08 08:32:52.607417,2026-01-03 14:53:19.742114,-409172.865303,hit,870.0,410043.3893237024,870.5240207079914
195,right,2026-01-03 14:53:24.218093,2026-01-08 08:32:52.608664,2026-01-03 14:53:24.741690,-409167.866974,hit,875.0,410043.3905708681,875.5235966669861
196,left,2026-01-03 14:53:28.218093,2026-01-08 08:32:52.608301,2026-01-03 14:53:28.750534,-409163.857767,hit,879.0,410043.39020805625,879.5324414579663
197,left,2026-01-03 14:53:33.218093,2026-01-08 08:32:52.609049,2026-01-03 14:53:33.720642,-409158.888407,hit,884.0,410043.39095635555,884.502548999968
198,right,2026-01-03 14:53:40.218093,2026-01-08 08:32:52.607213,2026-01-03 14:53:40.742383,-409151.864830,hit,891.0,410043.3891196207,891.5242898750002
199,left,2026-01-03 14:53:47.218093,2026-01-08 08:32:52.605353,2026-01-03 14:53:47.757994,-409144.847359,hit,898.0,410043.3872602103,898.5399014999857
