trial,side,scheduled_timestamp_utc,actual_onset_timestamp_utc,response_timestamp_utc,RT_seconds,resp_status,scheduled_offset_s,actual_onset_offset_s,response_offset_s
1,left,2026-01-03 15:13:35.144702,2026-01-03 15:13:35.151315,2026-01-03 15:13:35.744425,0.593110,hit,7.0,7.006612244236749,7.5997225000173785
2,left,2026-01-03 15:13:39.144702,2026-01-03 15:13:39.150952,2026-01-03 15:13:39.650420,0.499468,hit,11.0,11.006249432452023,11.505717749998439
3,right,2026-01-03 15:13:46.144702,2026-01-03 15:13:46.151759,2026-01-03 15:13:46.681406,0.529647,hit,18.0,18.007056689006276,18.536704124999233
4,right,2026-01-03 15:13:48.144702,2026-01-03 15:13:48.154480,2026-01-03 15:13:48.671412,0.516932,hit,20.0,20.009777777420823,20.52670979098184
5,left,2026-01-03 15:13:53.144702,2026-01-03 15:13:53.152585,2026-01-03 15:13:53.613780,0.461196,hit,25.0,25.007882085512392,25.469077790970914
6,left,2026-01-03 15:13:55.144702,2026-01-03 15:13:55.155310,2026-01-03 15:13:55.664671,0.509361,hit,27.0,27.010607709700707,27.519968750013504
7,right,2026-01-03 15:13:59.144702,2026-01-03 15:13:59.149138,2026-01-03 15:13:59.588226,0.439088,hit,31.0,31.004435373470187,31.443523666006513
8,right,2026-01-03 15:14:04.144702,2026-01-03 15:14:04.153029,2026-01-03 15:14:04.630770,0.477741,hit,36.0,36.00832653028192,36.4860672079958
9,left,2026-01-03 15:14:06.144702,2026-01-03 15:14:06.155755,2026-01-03 15:14:06.680729,0.524974,hit,38.0,38.011052153480705,38.53602612501709
10,left,2026-01-03 15:14:11.144702,2026-01-03 15:14:11.153859,2026-01-03 15:14:11.608047,0.454189,hit,43.0,43.009156462561805,43.463345125026535
11,right,2026-01-03 15:14:16.144702,2026-01-03 15:14:16.151941,2026-01-03 15:14:16.596463,0.444523,hit,48.0,48.007238094869535,48.45176074997289
12,right,2026-01-03 15:14:18.144702,2026-01-03 15:14:18.154662,2026-01-03 15:14:18.614019,0.459358,hit,50.0,50.00995918334229,50.46931675000815
13,left,2026-01-03 15:14:25.144702,2026-01-03 15:14:25.155492,2026-01-03 15:14:25.604377,0.448886,hit,57.0,57.010789115622174,57.459674625017215
14,right,2026-01-03 15:14:32.144702,2026-01-03 15:14:32.153452,2026-01-03 15:14:32.611148,0.457695,hit,64.0,64.00874999997905,64.46644512499915
15,left,2026-01-03 15:14:36.144702,2026-01-03 15:14:36.153085,2026-01-03 15:14:36.593042,0.439957,hit,68.0,68.00838265242055,68.4483394579729
16,right,2026-01-03 15:14:40.144702,2026-01-03 15:14:40.152722,2026-01-03 15:14:40.607089,0.454366,hit,72.0,72.00801984063582,72.46238599997014
17,left,2026-01-03 15:14:45.144702,2026-01-03 15:14:45.150809,2026-01-03 15:14:45.610840,0.460032,hit,77.0,77.00610600871732,77.466137624986
18,left,2026-01-03 15:14:52.144702,2026-01-03 15:14:52.151634,2026-01-03 15:14:52.608923,0.457289,hit,84.0,84.00693140522344,84.46422033297131
19,left,2026-01-03 15:14:56.144702,2026-01-03 15:14:56.151271,2026-01-03 15:14:56.635910,0.484639,hit,88.0,88.00656859343871,88.49120749998838
20,right,2026-01-03 15:14:58.144702,2026-01-03 15:14:58.148187,2026-01-03 15:14:58.790111,0.641924,hit,90.0,90.00348469323944,90.64540891599609
21,left,2026-01-03 15:15:00.144702,2026-01-03 15:15:00.150908,2026-01-03 15:15:00.610988,0.460080,hit,92.0,92.00620578165399,92.46628587500891
22,right,2026-01-03 15:15:07.144702,2026-01-03 15:15:07.151716,2026-01-03 15:15:07.624552,0.472836,hit,99.0,99.00701303820824,99.47984949999955
23,right,2026-01-03 15:15:11.144702,2026-01-03 15:15:11.151353,2026-01-03 15:15:11.635207,0.483854,hit,103.0,103.00665022642352,103.4905044999905
24,right,2026-01-03 15:15:16.144702,2026-01-03 15:15:16.149457,2026-01-03 15:15:16.633142,0.483685,hit,108.0,108.00475453445688,108.48843924998073
25,left,2026-01-03 15:15:18.144702,2026-01-03 15:15:18.152178,2026-01-03 15:15:18.691968,0.539790,hit,110.0,110.00747562292963,110.54726566601312
26,right,2026-01-03 15:15:23.144702,2026-01-03 15:15:23.156069,2026-01-03 15:15:23.637655,0.481585,hit,115.0,115.01136677968316,115.49295212497236
27,right,2026-01-03 15:15:25.144702,2026-01-03 15:15:25.152985,2026-01-03 15:15:25.657232,0.504247,hit,117.0,117.00828287948389,117.51252970797941
28,right,2026-01-03 15:15:29.144702,2026-01-03 15:15:29.152622,2026-01-03 15:15:29.594304,0.441681,hit,121.0,121.00792006769916,121.44960145797813
29,left,2026-01-03 15:15:34.144702,2026-01-03 15:15:34.150727,2026-01-03 15:15:34.588469,0.437742,hit,126.0,126.00602437573252,126.443766625016
30,right,2026-01-03 15:15:41.144702,2026-01-03 15:15:41.151534,2026-01-03 15:15:41.623708,0.472174,hit,133.0,133.00683163228678,133.47900549997576
31,left,2026-01-03 15:15:48.144702,2026-01-03 15:15:48.152359,2026-01-03 15:15:48.692788,0.540428,hit,140.0,140.0076570287929,140.5480854579946
32,left,2026-01-03 15:15:52.144702,2026-01-03 15:15:52.151997,2026-01-03 15:15:52.601240,0.449244,hit,144.0,144.00729421700817,144.4565379159758
33,right,2026-01-03 15:15:57.144702,2026-01-03 15:15:57.155888,2026-01-03 15:15:57.637704,0.481816,hit,149.0,149.0111853738199,149.49300154100638
34,right,2026-01-03 15:16:04.144702,2026-01-03 15:16:04.150908,2026-01-03 15:16:04.671802,0.520894,hit,156.0,156.006205781654,156.52709987497656
35,left,2026-01-03 15:16:09.144702,2026-01-03 15:16:09.154799,2026-01-03 15:16:09.631335,0.476535,hit,161.0,161.01009693840751,161.48663229099475
36,left,2026-01-03 15:16:16.144702,2026-01-03 15:16:16.149820,2026-01-03 15:16:16.635765,0.485945,hit,168.0,168.0051173462998,168.49106279097032
37,left,2026-01-03 15:16:20.144702,2026-01-03 15:16:20.149457,2026-01-03 15:16:20.640355,0.490898,hit,172.0,172.00475453445688,172.4956523749861
38,right,2026-01-03 15:16:22.144702,2026-01-03 15:16:22.152178,2026-01-03 15:16:22.665078,0.512900,hit,174.0,174.00747562292963,174.5203758329735
39,right,2026-01-03 15:16:26.144702,2026-01-03 15:16:26.151815,2026-01-03 15:16:26.600337,0.448522,hit,178.0,178.0071128111449,178.45563458302058
40,left,2026-01-03 15:16:28.144702,2026-01-03 15:16:28.148731,2026-01-03 15:16:28.599710,0.450979,hit,180.0,180.00402891088743,180.45500770799117
41,left,2026-01-03 15:16:35.144702,2026-01-08 10:44:48.994510,2026-01-03 15:16:35.670662,-415693.323848,hit,187.0,415880.8498076488,187.52595924999332
42,right,2026-01-03 15:16:37.144702,2026-01-08 10:44:48.991426,2026-01-03 15:16:37.688168,-415691.303258,hit,189.0,415880.8467237486,189.54346566600725
43,right,2026-01-03 15:16:42.144702,2026-01-08 10:44:48.992651,2026-01-03 15:16:42.661764,-415686.330887,hit,194.0,415880.84794823837,194.51706120802555
44,left,2026-01-03 15:16:44.144702,2026-01-08 10:44:48.990043,2026-01-03 15:16:44.601689,-415684.388354,hit,196.0,415880.84534052864,196.45698695798637
45,right,2026-01-03 15:16:51.144702,2026-01-08 10:44:48.993059,2026-01-03 15:16:51.700821,-415677.292238,hit,203.0,415880.84835640166,203.55611862498336
46,left,2026-01-03 15:16:55.144702,2026-01-08 10:44:48.992696,2026-01-03 15:16:55.654897,-415673.337799,hit,207.0,415880.8479935898,207.51019458298106
47,right,2026-01-03 15:16:59.144702,2026-01-08 10:44:48.992333,2026-01-03 15:16:59.567034,-415669.425300,hit,211.0,415880.847630778,211.42233108298387
48,left,2026-01-03 15:17:04.144702,2026-01-08 10:44:48.993558,2026-01-03 15:17:04.603858,-415664.389700,hit,216.0,415880.84885526786,216.45915504102595
49,right,2026-01-03 15:17:09.144702,2026-01-08 10:44:48.994329,2026-01-03 15:17:09.604694,-415659.389634,hit,221.0,415880.8496262429,221.45999195799232
50,right,2026-01-03 15:17:13.144702,2026-01-08 10:44:48.993966,2026-01-03 15:17:13.612055,-415655.381911,hit,225.0,415880.84926343104,225.46735254098894
51,left,2026-01-03 15:17:20.144702,2026-01-08 10:44:48.992106,2026-01-03 15:17:20.695887,-415648.296220,hit,232.0,415880.8474040207,232.5511841250118
52,left,2026-01-03 15:17:22.144702,2026-01-08 10:44:48.994828,2026-01-03 15:17:22.687212,-415646.307615,hit,234.0,415880.8501251091,234.54250987502746
53,left,2026-01-03 15:17:27.144702,2026-01-08 10:44:48.989794,2026-01-03 15:17:27.626872,-415641.362922,hit,239.0,415880.84509109554,239.4821693749982
54,right,2026-01-03 15:17:34.144702,2026-01-08 10:44:48.993739,2026-01-03 15:17:34.621507,-415634.372232,hit,246.0,415880.8490366738,246.47680462501012
55,left,2026-01-03 15:17:38.144702,2026-01-08 10:44:48.993376,2026-01-03 15:17:38.617377,-415630.376000,hit,250.0,415880.84867386194,250.47267408302287
56,right,2026-01-03 15:17:40.144702,2026-01-08 10:44:48.990292,2026-01-03 15:17:40.656490,-415628.333802,hit,252.0,415880.84558996174,252.51178749999963
57,left,2026-01-03 15:17:45.144702,2026-01-08 10:44:48.991063,2026-01-03 15:17:45.585927,-415623.405136,hit,257.0,415880.84636093676,257.4412245830172
58,right,2026-01-03 15:17:52.144702,2026-01-08 10:44:48.989680,2026-01-03 15:17:52.619837,-415616.369844,hit,264.0,415880.8449777168,264.4751340409857
59,left,2026-01-03 15:17:59.144702,2026-01-08 10:44:48.992696,2026-01-03 15:17:59.618702,-415609.373994,hit,271.0,415880.8479935898,271.47399954102
60,left,2026-01-03 15:18:03.144702,2026-01-08 10:44:48.992333,2026-01-03 15:18:03.599668,-415605.392665,hit,275.0,415880.847630778,275.4549656659947
61,left,2026-01-03 15:18:05.144702,2026-01-08 10:44:48.989726,2026-01-03 15:18:05.660522,-415603.329204,hit,277.0,415880.84502306825,277.5158190410002
62,right,2026-01-03 15:18:07.144702,2026-01-08 10:44:48.991971,2026-01-03 15:18:07.644165,-415601.347806,hit,279.0,415880.84726796625,279.49946233298397
63,right,2026-01-03 15:18:11.144702,2026-01-08 10:44:48.991608,2026-01-03 15:18:11.595787,-415597.395821,hit,283.0,415880.8469051544,283.45108425000217
64,right,2026-01-03 15:18:16.144702,2026-01-08 10:44:48.992832,2026-01-03 15:18:16.597688,-415592.395144,hit,288.0,415880.8481296443,288.4529854580178
65,right,2026-01-03 15:18:18.144702,2026-01-08 10:44:48.989748,2026-01-03 15:18:18.636779,-415590.352969,hit,290.0,415880.845045744,290.49207641597604
66,left,2026-01-03 15:18:25.144702,2026-01-08 10:44:48.992764,2026-01-03 15:18:25.614510,-415583.378254,hit,297.0,415880.848061617,297.4698075830238
67,left,2026-01-03 15:18:30.144702,2026-01-08 10:44:48.993059,2026-01-03 15:18:30.576066,-415578.416992,hit,302.0,415880.84835640166,302.43136408302234
68,right,2026-01-03 15:18:37.144702,2026-01-08 10:44:48.990746,2026-01-03 15:18:37.616890,-415571.373856,hit,309.0,415880.8460434765,309.47218724997947
69,right,2026-01-03 15:18:41.144702,2026-01-08 10:44:48.990383,2026-01-03 15:18:41.652219,-415567.338164,hit,313.0,415880.84568066464,313.50751641602255
70,left,2026-01-03 15:18:45.144702,2026-01-08 10:44:48.990020,2026-01-03 15:18:45.620186,-415563.369834,hit,317.0,415880.8453178529,317.4754836659995
71,right,2026-01-03 15:18:50.144702,2026-01-08 10:44:48.991245,2026-01-03 15:18:50.594373,-415558.396872,hit,322.0,415880.8465423427,322.4496705830097
72,left,2026-01-03 15:18:52.144702,2026-01-08 10:44:48.993966,2026-01-03 15:18:52.645663,-415556.348303,hit,324.0,415880.84926343104,324.5009600829799
73,left,2026-01-03 15:18:56.144702,2026-01-08 10:44:48.993603,2026-01-03 15:18:56.608295,-415552.385308,hit,328.0,415880.8489006193,328.4635922079906
74,left,2026-01-03 15:19:01.144702,2026-01-08 10:44:48.994374,2026-01-03 15:19:01.629349,-415547.365025,hit,333.0,415880.84967159433,333.4846461249981
75,right,2026-01-03 15:19:08.144702,2026-01-08 10:44:48.991562,2026-01-03 15:19:08.645777,-415540.345786,hit,340.0,415880.84685980296,340.50107420800487
76,left,2026-01-03 15:19:10.144702,2026-01-08 10:44:48.994283,2026-01-03 15:19:10.637240,-415538.357043,hit,342.0,415880.84958089143,342.4925374999875
77,left,2026-01-03 15:19:17.144702,2026-01-08 10:44:48.992447,2026-01-03 15:19:17.630828,-415531.361618,hit,349.0,415880.8477441567,349.4861259579775
78,right,2026-01-03 15:19:19.144702,2026-01-08 10:44:48.989839,2026-01-03 15:19:19.642683,-415529.347156,hit,351.0,415880.845136447,351.4979805829935
79,right,2026-01-03 15:19:24.144702,2026-01-08 10:44:48.990587,2026-01-03 15:19:24.615394,-415524.375193,hit,356.0,415880.8458847463,356.4706920000026
80,right,2026-01-03 15:19:28.144702,2026-01-08 10:44:48.989748,2026-01-03 15:19:28.592235,-415520.397513,hit,360.0,415880.845045744,360.4475323330262
81,right,2026-01-03 15:19:30.144702,2026-01-08 10:44:48.992469,2026-01-03 15:19:30.689898,-415518.302571,hit,362.0,415880.84776683245,362.54519558302127
82,left,2026-01-03 15:19:35.144702,2026-01-08 10:44:48.993716,2026-01-03 15:19:35.623586,-415513.370131,hit,367.0,415880.84901399794,367.47888316598255
83,right,2026-01-03 15:19:40.144702,2026-01-08 10:44:48.994465,2026-01-03 15:19:40.599955,-415508.394510,hit,372.0,415880.84976229735,372.4552523330203
84,left,2026-01-03 15:19:47.144702,2026-01-08 10:44:48.992628,2026-01-03 15:19:47.589205,-415501.403423,hit,379.0,415880.84792556264,379.4445026249741
85,left,2026-01-03 15:19:51.144702,2026-01-08 10:44:48.992265,2026-01-03 15:19:51.603859,-415497.388406,hit,383.0,415880.8475627508,383.4591569160111
86,right,2026-01-03 15:19:55.144702,2026-01-08 10:44:48.991902,2026-01-03 15:19:55.622635,-415493.369267,hit,387.0,415880.8471999391,387.47793270798866
87,left,2026-01-03 15:19:57.144702,2026-01-08 10:44:48.994623,2026-01-03 15:19:57.792063,-415491.202561,hit,389.0,415880.84992102743,389.64735995797673
88,right,2026-01-03 15:20:04.144702,2026-01-08 10:44:48.992288,2026-01-03 15:20:04.611806,-415484.380482,hit,396.0,415880.8475854265,396.4671037499793
89,right,2026-01-03 15:20:08.144702,2026-01-08 10:44:48.991925,2026-01-03 15:20:08.578696,-415480.413229,hit,400.0,415880.8472226148,400.4339937909972
90,left,2026-01-03 15:20:10.144702,2026-01-08 10:44:48.994646,2026-01-03 15:20:10.658205,-415478.336442,hit,402.0,415880.84994370316,402.513502124988
91,left,2026-01-03 15:20:14.144702,2026-01-08 10:44:48.994283,2026-01-03 15:20:14.617849,-415474.376434,hit,406.0,415880.84958089143,406.4731467500096
92,right,2026-01-03 15:20:19.144702,2026-01-08 10:44:48.989726,2026-01-03 15:20:19.591541,-415469.398185,hit,411.0,415880.84502306825,411.44683820800856
93,right,2026-01-03 15:20:21.144702,2026-01-08 10:44:48.992447,2026-01-03 15:20:21.607978,-415467.384469,hit,413.0,415880.8477441567,413.4632751659956
94,right,2026-01-03 15:20:28.144702,2026-01-08 10:44:48.990111,2026-01-03 15:20:28.578412,-415460.411699,hit,420.0,415880.8454085558,420.43370925000636
95,left,2026-01-03 15:20:35.144702,2026-01-08 10:44:48.994079,2026-01-03 15:20:35.608675,-415453.385404,hit,427.0,415880.8493768098,427.4639724160079
96,left,2026-01-03 15:20:40.144702,2026-01-08 10:44:48.994828,2026-01-03 15:20:40.602107,-415448.392720,hit,432.0,415880.8501251091,432.45740474999184
97,left,2026-01-03 15:20:47.144702,2026-01-08 10:44:48.992991,2026-01-03 15:20:47.626612,-415441.366379,hit,439.0,415880.84828837437,439.48190929100383
98,left,2026-01-03 15:20:51.144702,2026-01-08 10:44:48.992628,2026-01-03 15:20:51.644367,-415437.348261,hit,443.0,415880.84792556264,443.49966429098276
99,left,2026-01-03 15:20:53.144702,2026-01-08 10:44:48.990020,2026-01-03 15:20:53.607868,-415435.382152,hit,445.0,415880.8453178529,445.4631653749966
100,right,2026-01-03 15:20:58.144702,2026-01-08 10:44:48.990769,2026-01-03 15:20:58.644558,-415430.346211,hit,450.0,415880.8460661522,450.499855416012
101,right,2026-01-03 15:21:05.144702,2026-01-08 10:44:48.994261,2026-01-03 15:21:05.706053,-415423.288208,hit,457.0,415880.8495582157,457.5613504999783
102,right,2026-01-03 15:21:09.144702,2026-01-08 10:44:48.993898,2026-01-03 15:21:09.614137,-415419.379761,hit,461.0,415880.84919540386,461.46943449997343
103,right,2026-01-03 15:21:11.144702,2026-01-08 10:44:48.990814,2026-01-03 15:21:11.659003,-415417.331810,hit,463.0,415880.84611150366,463.51430108299246
104,left,2026-01-03 15:21:16.144702,2026-01-08 10:44:48.992038,2026-01-03 15:21:16.628457,-415412.363582,hit,468.0,415880.8473359934,468.4837540410226
105,right,2026-01-03 15:21:18.144702,2026-01-08 10:44:48.994283,2026-01-03 15:21:18.579823,-415410.414460,hit,470.0,415880.84958089143,470.4351205410203
106,left,2026-01-03 15:21:23.144702,2026-01-08 10:44:48.989726,2026-01-03 15:21:23.619397,-415405.370329,hit,475.0,415880.84502306825,475.47469441598514
107,right,2026-01-03 15:21:30.144702,2026-01-08 10:44:48.993195,2026-01-03 15:21:30.661732,-415398.331463,hit,482.0,415880.848492456,482.5170292080147
108,left,2026-01-03 15:21:34.144702,2026-01-08 10:44:48.992832,2026-01-03 15:21:34.599327,-415394.393505,hit,486.0,415880.8481296443,486.4546242909855
109,left,2026-01-03 15:21:41.144702,2026-01-08 10:44:48.990995,2026-01-03 15:21:41.594084,-415387.396912,hit,493.0,415880.8462929096,493.4493810409913
110,right,2026-01-03 15:21:45.144702,2026-01-08 10:44:48.990633,2026-01-03 15:21:45.572540,-415383.418092,hit,497.0,415880.84593009774,497.4278376660077
111,left,2026-01-03 15:21:47.144702,2026-01-08 10:44:48.993354,2026-01-03 15:21:47.668217,-415381.325136,hit,499.0,415880.8486511862,499.5235147079802
112,right,2026-01-03 15:21:52.144702,2026-01-08 10:44:48.994102,2026-01-03 15:21:52.618497,-415376.375605,hit,504.0,415880.8493994855,504.47379479097435
113,left,2026-01-03 15:21:54.144702,2026-01-08 10:44:48.991018,2026-01-03 15:21:54.570831,-415374.420187,hit,506.0,415880.8463155853,506.4261282500229
114,left,2026-01-03 15:21:58.144702,2026-01-08 10:44:48.990655,2026-01-03 15:21:58.584697,-415370.405959,hit,510.0,415880.84595277347,510.4399941249867
115,right,2026-01-03 15:22:00.144702,2026-01-08 10:44:48.993376,2026-01-03 15:22:00.674202,-415368.319174,hit,512.0,415880.84867386194,512.5294999160105
116,left,2026-01-03 15:22:07.144702,2026-01-08 10:44:48.991539,2026-01-03 15:22:07.633028,-415361.358512,hit,519.0,415880.84683712723,519.488325415994
117,right,2026-01-03 15:22:11.144702,2026-01-08 10:44:48.991177,2026-01-03 15:22:11.607473,-415357.383704,hit,523.0,415880.8464743155,523.4627703750157
118,left,2026-01-03 15:22:16.144702,2026-01-08 10:44:48.991925,2026-01-03 15:22:16.666445,-415352.325480,hit,528.0,415880.8472226148,528.5217423330178
119,right,2026-01-03 15:22:21.144702,2026-01-08 10:44:48.993172,2026-01-03 15:22:21.648697,-415347.344475,hit,533.0,415880.8484697803,533.5039947080077
120,right,2026-01-03 15:22:28.144702,2026-01-08 10:44:48.990837,2026-01-03 15:22:28.595974,-415340.394863,hit,540.0,415880.8461341794,540.451271332975
121,left,2026-01-03 15:22:32.144702,2026-01-08 10:44:48.990474,2026-01-03 15:22:32.596277,-415336.394196,hit,544.0,415880.84577136766,544.4515751249855
122,right,2026-01-03 15:22:39.144702,2026-01-08 10:44:48.994442,2026-01-03 15:22:39.668085,-415329.326358,hit,551.0,415880.8497396216,551.523382082989
123,left,2026-01-03 15:22:46.144702,2026-01-08 10:44:48.992106,2026-01-03 15:22:46.647034,-415322.345073,hit,558.0,415880.8474040207,558.5023311660043
124,left,2026-01-03 15:22:51.144702,2026-01-08 10:44:48.993354,2026-01-03 15:22:51.632246,-415317.361108,hit,563.0,415880.8486511862,563.4875431659748
125,right,2026-01-03 15:22:56.144702,2026-01-08 10:44:48.994102,2026-01-03 15:22:56.678350,-415312.315751,hit,568.0,415880.8493994855,568.5336480410188
126,left,2026-01-03 15:22:58.144702,2026-01-08 10:44:48.991018,2026-01-03 15:22:58.619258,-415310.371760,hit,570.0,415880.8463155853,570.4745556659764
127,right,2026-01-03 15:23:02.144702,2026-01-08 10:44:48.990655,2026-01-03 15:23:02.584087,-415306.406568,hit,574.0,415880.84595277347,574.4393843750004
128,right,2026-01-03 15:23:04.144702,2026-01-08 10:44:48.993376,2026-01-03 15:23:04.608857,-415304.384520,hit,576.0,415880.84867386194,576.4641542910249
129,left,2026-01-03 15:23:06.144702,2026-01-08 10:44:48.990292,2026-01-03 15:23:06.608200,-415302.382092,hit,578.0,415880.84558996174,578.4634976250236
130,right,2026-01-03 15:23:10.144702,2026-01-08 10:44:48.989930,2026-01-03 15:23:10.587876,-415298.402054,hit,582.0,415880.8452271499,582.4431730830111
131,left,2026-01-03 15:23:15.144702,2026-01-08 10:44:48.991177,2026-01-03 15:23:15.645037,-415293.346140,hit,587.0,415880.8464743155,587.5003345410223
132,left,2026-01-03 15:23:22.144702,2026-01-08 10:44:48.994646,2026-01-03 15:23:22.623049,-415286.371597,hit,594.0,415880.84994370316,594.4783470410039
133,left,2026-01-03 15:23:26.144702,2026-01-08 10:44:48.994283,2026-01-03 15:23:26.626777,-415282.367506,hit,598.0,415880.84958089143,598.4820747909835
134,right,2026-01-03 15:23:31.144702,2026-01-08 10:44:48.989726,2026-01-03 15:23:31.589953,-415277.399772,hit,603.0,415880.84502306825,603.4452508750255
135,right,2026-01-03 15:23:38.144702,2026-01-08 10:44:48.993195,2026-01-03 15:23:38.602933,-415270.390261,hit,610.0,415880.848492456,610.4582309999969
136,right,2026-01-03 15:23:40.144702,2026-01-08 10:44:48.990111,2026-01-03 15:23:40.569746,-415268.420364,hit,612.0,415880.8454085558,612.4250440829783
137,left,2026-01-03 15:23:44.144702,2026-01-08 10:44:48.990224,2026-01-03 15:23:44.561688,-415264.428536,hit,616.0,415880.84552193445,616.4169857910019
138,left,2026-01-03 15:23:49.144702,2026-01-08 10:44:48.990995,2026-01-03 15:23:49.611292,-415259.379704,hit,621.0,415880.8462929096,621.4665892079938
139,left,2026-01-03 15:23:51.144702,2026-01-08 10:44:48.993716,2026-01-03 15:23:51.659780,-415257.333936,hit,623.0,415880.84901399794,623.5150778749958
140,right,2026-01-03 15:23:53.144702,2026-01-08 10:44:48.990633,2026-01-03 15:23:53.574733,-415255.415899,hit,625.0,415880.84593009774,625.4300310409744
141,right,2026-01-03 15:23:58.144702,2026-01-08 10:44:48.991381,2026-01-03 15:23:58.593325,-415250.398056,hit,630.0,415880.84667839704,630.448622750002
142,left,2026-01-03 15:24:05.144702,2026-01-08 10:44:48.990020,2026-01-03 15:24:05.626627,-415243.363393,hit,637.0,415880.8453178529,637.4819247910054
143,right,2026-01-03 15:24:12.144702,2026-01-08 10:44:48.993014,2026-01-03 15:24:12.645229,-415236.347784,hit,644.0,415880.8483110501,644.500526666001
144,right,2026-01-03 15:24:16.144702,2026-01-08 10:44:48.992651,2026-01-03 15:24:16.651957,-415232.340694,hit,648.0,415880.84794823837,648.5072543330025
145,right,2026-01-03 15:24:21.144702,2026-01-08 10:44:48.993898,2026-01-03 15:24:21.623178,-415227.370720,hit,653.0,415880.84919540386,653.4784755830187
146,left,2026-01-03 15:24:28.144702,2026-01-08 10:44:48.991562,2026-01-03 15:24:28.618044,-415220.373518,hit,660.0,415880.84685980296,660.4733414999791
147,right,2026-01-03 15:24:32.144702,2026-01-08 10:44:48.991199,2026-01-03 15:24:32.641167,-415216.350033,hit,664.0,415880.84649699123,664.496464374999
148,right,2026-01-03 15:24:34.144702,2026-01-08 10:44:48.993921,2026-01-03 15:24:34.625337,-415214.368584,hit,666.0,415880.8492180796,666.4806344580138
149,left,2026-01-03 15:24:39.144702,2026-01-08 10:44:48.989839,2026-01-03 15:24:39.594937,-415209.394902,hit,671.0,415880.845136447,671.450234332995
150,right,2026-01-03 15:24:46.144702,2026-01-08 10:44:48.992832,2026-01-03 15:24:46.702258,-415202.290575,hit,678.0,415880.8481296443,678.5575551249785
151,left,2026-01-03 15:24:48.144702,2026-01-08 10:44:48.989748,2026-01-03 15:24:48.596955,-415200.392793,hit,680.0,415880.845045744,680.4522524580243
152,left,2026-01-03 15:24:52.144702,2026-01-08 10:44:48.989861,2026-01-03 15:24:52.585593,-415196.404269,hit,684.0,415880.8451591227,684.4408905410091
153,left,2026-01-03 15:24:59.144702,2026-01-08 10:44:48.993354,2026-01-03 15:24:59.675653,-415189.317700,hit,691.0,415880.8486511862,691.5309510829975
154,right,2026-01-03 15:25:06.144702,2026-01-08 10:44:48.991018,2026-01-03 15:25:06.640730,-415182.350288,hit,698.0,415880.8463155853,698.4960271249874
155,right,2026-01-03 15:25:11.144702,2026-01-08 10:44:48.992265,2026-01-03 15:25:11.681688,-415177.310577,hit,703.0,415880.8475627508,703.5369855409954
156,right,2026-01-03 15:25:15.144702,2026-01-08 10:44:48.991902,2026-01-03 15:25:15.602304,-415173.389599,hit,707.0,415880.8471999391,707.4576009580051
157,left,2026-01-03 15:25:17.144702,2026-01-08 10:44:48.994623,2026-01-03 15:25:17.627888,-415171.366735,hit,709.0,415880.84992102743,709.4831857500249
158,left,2026-01-03 15:25:22.144702,2026-01-08 10:44:48.990043,2026-01-03 15:25:22.619400,-415166.370643,hit,714.0,415880.84534052864,714.4746973330039
159,left,2026-01-03 15:25:26.144702,2026-01-08 10:44:48.989680,2026-01-03 15:25:26.674602,-415162.315078,hit,718.0,415880.8449777168,718.5298997909995
160,right,2026-01-03 15:25:28.144702,2026-01-08 10:44:48.991925,2026-01-03 15:25:28.656270,-415160.335655,hit,720.0,415880.8472226148,720.5115672079846
161,right,2026-01-03 15:25:32.144702,2026-01-08 10:44:48.991562,2026-01-03 15:25:32.611860,-415156.379702,hit,724.0,415880.84685980296,724.467157749983
162,left,2026-01-03 15:25:39.144702,2026-01-08 10:44:48.989726,2026-01-03 15:25:39.639084,-415149.350641,hit,731.0,415880.84502306825,731.4943817079766
163,right,2026-01-03 15:25:44.144702,2026-01-08 10:44:48.990474,2026-01-03 15:25:44.621392,-415144.369081,hit,736.0,415880.84577136766,736.4766899999813
164,left,2026-01-03 15:25:48.144702,2026-01-08 10:44:48.990111,2026-01-03 15:25:48.656677,-415140.333434,hit,740.0,415880.8454085558,740.5119750410086
165,left,2026-01-03 15:25:50.144702,2026-01-08 10:44:48.992832,2026-01-03 15:25:50.605099,-415138.387733,hit,742.0,415880.8481296443,742.460396874987
166,right,2026-01-03 15:25:57.144702,2026-01-08 10:44:48.990995,2026-01-03 15:25:57.668988,-415131.322007,hit,749.0,415880.8462929096,749.524285749998
167,left,2026-01-03 15:26:02.144702,2026-01-08 10:44:48.991744,2026-01-03 15:26:02.663046,-415126.328697,hit,754.0,415880.8470412089,754.5183439159882
168,right,2026-01-03 15:26:04.144702,2026-01-08 10:44:48.994465,2026-01-03 15:26:04.652160,-415124.342305,hit,756.0,415880.84976229735,756.5074571250007
169,right,2026-01-03 15:26:06.144702,2026-01-08 10:44:48.991381,2026-01-03 15:26:06.593562,-415122.397819,hit,758.0,415880.84667839704,758.448859874974
170,right,2026-01-03 15:26:10.144702,2026-01-08 10:44:48.991018,2026-01-03 15:26:10.607215,-415118.383803,hit,762.0,415880.8463155853,762.4625128330081
171,right,2026-01-03 15:26:17.144702,2026-01-08 10:44:48.989657,2026-01-03 15:26:17.610972,-415111.378686,hit,769.0,415880.8449550411,769.4662694580038
172,left,2026-01-03 15:26:24.144702,2026-01-08 10:44:48.992651,2026-01-03 15:26:24.644549,-415104.348101,hit,776.0,415880.84794823837,776.4998467909754
173,left,2026-01-03 15:26:29.144702,2026-01-08 10:44:48.993898,2026-01-03 15:26:29.619304,-415099.374594,hit,781.0,415880.84919540386,781.4746015000273
174,left,2026-01-03 15:26:31.144702,2026-01-08 10:44:48.990814,2026-01-03 15:26:31.669811,-415097.321003,hit,783.0,415880.84611150366,783.5251083329786
175,right,2026-01-03 15:26:36.144702,2026-01-08 10:44:48.990633,2026-01-03 15:26:36.606528,-415092.384104,hit,788.0,415880.84593009774,788.4618257500115
176,left,2026-01-03 15:26:40.144702,2026-01-08 10:44:48.990270,2026-01-03 15:26:40.643572,-415088.346697,hit,792.0,415880.845567286,792.4988699160167
177,right,2026-01-03 15:26:44.144702,2026-01-08 10:44:48.989907,2026-01-03 15:26:44.583389,-415084.406518,hit,796.0,415880.8452044742,796.4386865830165
178,left,2026-01-03 15:26:48.144702,2026-01-08 10:44:48.990020,2026-01-03 15:26:48.620440,-415080.369581,hit,800.0,415880.8453178529,800.4757370000007
179,left,2026-01-03 15:26:50.144702,2026-01-08 10:44:48.992265,2026-01-03 15:26:50.638548,-415078.353717,hit,802.0,415880.8475627508,802.4938457079697
180,right,2026-01-03 15:26:57.144702,2026-01-08 10:44:48.989930,2026-01-03 15:26:57.678375,-415071.311554,hit,809.0,415880.8452271499,809.5336730830022
181,right,2026-01-03 15:26:59.144702,2026-01-08 10:44:48.992651,2026-01-03 15:26:59.689541,-415069.303110,hit,811.0,415880.84794823837,811.5448383329785
182,left,2026-01-03 15:27:06.144702,2026-01-08 10:44:48.990814,2026-01-03 15:27:06.658102,-415062.332712,hit,818.0,415880.84611150366,818.5133993750205
183,right,2026-01-03 15:27:11.144702,2026-01-08 10:44:48.991562,2026-01-03 15:27:11.607744,-415057.383819,hit,823.0,415880.84685980296,823.4630412500119
184,left,2026-01-03 15:27:16.144702,2026-01-08 10:44:48.992810,2026-01-03 15:27:16.671734,-415052.321076,hit,828.0,415880.84810696857,828.5270311249769
185,right,2026-01-03 15:27:18.144702,2026-01-08 10:44:48.989726,2026-01-03 15:27:18.648665,-415050.341060,hit,830.0,415880.84502306825,830.5039629159728
186,right,2026-01-03 15:27:23.144702,2026-01-08 10:44:48.990474,2026-01-03 15:27:23.609795,-415045.380679,hit,835.0,415880.84577136766,835.4650924580055
187,right,2026-01-03 15:27:30.144702,2026-01-08 10:44:48.994442,2026-01-03 15:27:30.669188,-415038.325254,hit,842.0,415880.8497396216,842.5244853330078
188,left,2026-01-03 15:27:37.144702,2026-01-08 10:44:48.992106,2026-01-03 15:27:37.632412,-415031.359694,hit,849.0,415880.8474040207,849.4877100830199
189,right,2026-01-03 15:27:41.144702,2026-01-08 10:44:48.991744,2026-01-03 15:27:41.620719,-415027.371024,hit,853.0,415880.8470412089,853.4760169159854
190,left,2026-01-03 15:27:43.144702,2026-01-08 10:44:48.994465,2026-01-03 15:27:43.608831,-415025.385634,hit,855.0,415880.84976229735,855.4641281249933
191,left,2026-01-03 15:27:48.144702,2026-01-08 10:44:48.989907,2026-01-03 15:27:48.623744,-415020.366163,hit,860.0,415880.8452044742,860.4790411249851
192,left,2026-01-03 15:27:52.144702,2026-01-08 10:44:48.990020,2026-01-03 15:27:52.583277,-415016.406744,hit,864.0,415880.8453178529,864.4385741659789
193,right,2026-01-03 15:27:54.144702,2026-01-08 10:44:48.992265,2026-01-03 15:27:54.683476,-415014.308789,hit,866.0,415880.8475627508,866.5387734160176
194,right,2026-01-03 15:27:58.144702,2026-01-08 10:44:48.991902,2026-01-03 15:27:58.569946,-415010.421957,hit,870.0,415880.8471999391,870.4252431250061
195,right,2026-01-03 15:28:03.144702,2026-01-08 10:44:48.992651,2026-01-03 15:28:03.545585,-415005.447066,hit,875.0,415880.84794823837,875.4008823329932
196,left,2026-01-03 15:28:07.144702,2026-01-08 10:44:48.992288,2026-01-03 15:28:07.556902,-415001.435386,hit,879.0,415880.8475854265,879.412199250015
197,left,2026-01-03 15:28:12.144702,2026-01-08 10:44:48.993535,2026-01-03 15:28:12.622818,-414996.370717,hit,884.0,415880.84883259214,884.478116000013
198,right,2026-01-03 15:28:19.144702,2026-01-08 10:44:48.991199,2026-01-03 15:28:19.605495,-414989.385704,hit,891.0,415880.84649699123,891.460792583006
199,left,2026-01-03 15:28:26.144702,2026-01-08 10:44:48.989839,2026-01-03 15:28:26.586108,-414982.403731,hit,898.0,415880.845136447,898.4414052499924
